participant,trial,group,trialOrder,side,changeTrial,RTwoOutlier,soundDimension,soundfileNum,duration,pitch,response_time,correct,phase,RT_3x_std
P27,1,DLD,1,left,0.0,True,pitch,1,0.3,1.07271948,2.188951969,0,implicit,True
P27,2,DLD,1,right,1.0,True,pitch,4,0.66,2.304593711,2.044434071,0,implicit,True
P27,3,DLD,1,right,0.0,True,pitch,5,0.78,2.715218455,1.868333101,1,implicit,True
P27,4,DLD,1,left,1.0,True,pitch,3,0.54,1.893968967,2.811274052,1,implicit,True
P27,5,DLD,1,left,0.0,True,pitch,2,0.42,1.483344223,3.06602788,1,implicit,True
P27,6,DLD,1,right,1.0,False,pitch,6,0.9,3.125843199,5.176866055,1,implicit,True
P27,7,DLD,1,right,0.0,True,pitch,5,0.78,2.715218455,3.119224072,1,implicit,True
P27,8,DLD,1,left,1.0,True,pitch,2,0.42,1.483344223,2.607019901,1,implicit,True
P27,9,DLD,1,left,0.0,True,pitch,1,0.3,1.07271948,2.786305189,1,implicit,True
P27,10,DLD,1,right,1.0,True,pitch,4,0.66,2.304593711,2.378491879,1,implicit,True
P27,11,DLD,1,left,1.0,True,pitch,3,0.54,1.893968967,2.542459011,1,implicit,True
P27,12,DLD,1,right,1.0,True,pitch,6,0.9,3.125843199,2.014678001,1,implicit,True
P27,13,DLD,1,right,0.0,False,pitch,4,0.66,2.304593711,0.5671350956,1,implicit,True
P27,14,DLD,1,left,1.0,True,pitch,1,0.3,1.07271948,2.558873892,1,implicit,True
P27,15,DLD,1,right,1.0,True,pitch,6,0.9,3.125843199,1.431853056,1,implicit,True
P27,16,DLD,1,right,0.0,True,pitch,5,0.78,2.715218455,2.350636005,1,implicit,True
P27,17,DLD,1,left,1.0,True,pitch,2,0.42,1.483344223,2.442496061,1,implicit,True
P27,18,DLD,1,left,0.0,True,pitch,3,0.54,1.893968967,2.168702126,0,implicit,True
P27,19,DLD,1,right,1.0,True,pitch,6,0.9,3.125843199,2.028034925,0,implicit,True
P27,20,DLD,1,left,1.0,True,pitch,3,0.54,1.893968967,2.913333893,1,implicit,True
P27,21,DLD,1,right,1.0,True,pitch,4,0.66,2.304593711,2.119313955,1,implicit,True
P27,22,DLD,1,left,1.0,True,pitch,2,0.42,1.483344223,2.512051106,1,implicit,True
P27,23,DLD,1,left,0.0,True,pitch,1,0.3,1.07271948,2.718496084,1,implicit,True
P27,24,DLD,1,right,1.0,True,pitch,5,0.78,2.715218455,2.296041012,1,implicit,True
P27,25,DLD,1,left,0.0,True,pitch,2,0.42,1.483344223,2.004428864,0,implicit,True
P27,26,DLD,1,right,1.0,True,pitch,5,0.78,2.715218455,2.389282942,1,implicit,True
P27,27,DLD,1,left,1.0,True,pitch,3,0.54,1.893968967,2.52877593,1,implicit,True
P27,28,DLD,1,left,0.0,True,pitch,1,0.3,1.07271948,2.968869925,1,implicit,True
P27,29,DLD,1,right,1.0,True,pitch,6,0.9,3.125843199,2.129602909,1,implicit,True
P27,30,DLD,1,right,0.0,True,pitch,4,0.66,2.304593711,2.650970936,1,implicit,True
P27,31,DLD,1,right,0.0,True,pitch,6,0.9,3.125843199,3.033080101,1,implicit,True
P27,32,DLD,1,left,1.0,True,pitch,3,0.54,1.893968967,2.593960047,1,implicit,True
P27,33,DLD,1,left,0.0,True,pitch,2,0.42,1.483344223,2.720290899,1,implicit,True
P27,34,DLD,1,right,1.0,True,pitch,4,0.66,2.304593711,2.560121059,1,implicit,True
P27,35,DLD,1,left,1.0,True,pitch,1,0.3,1.07271948,2.610692024,1,implicit,True
P27,36,DLD,1,right,1.0,True,pitch,5,0.78,2.715218455,2.514280796,1,implicit,True
P27,37,DLD,1,left,1.0,True,pitch,1,0.3,1.07271948,2.461099863,1,implicit,True
P27,38,DLD,1,right,1.0,True,pitch,4,0.66,2.304593711,2.84088707,1,implicit,True
P27,39,DLD,1,right,0.0,True,pitch,6,0.9,3.125843199,2.548088074,1,implicit,True
P27,40,DLD,1,left,1.0,True,pitch,3,0.54,1.893968967,3.012194872,1,implicit,True
P27,41,DLD,1,right,1.0,False,pitch,5,0.78,2.715218455,4.757575989,1,implicit,True
P27,42,DLD,1,left,1.0,True,pitch,2,0.42,1.483344223,2.445764065,1,implicit,True
P27,43,DLD,1,left,0.0,True,pitch,3,0.54,1.893968967,2.787024975,1,implicit,True
P27,44,DLD,1,right,1.0,True,pitch,6,0.9,3.125843199,2.240979195,1,implicit,True
P27,45,DLD,1,left,1.0,True,pitch,2,0.42,1.483344223,2.514655113,1,implicit,True
P27,46,DLD,1,right,1.0,True,pitch,5,0.78,2.715218455,2.57850194,1,implicit,True
P27,47,DLD,1,right,0.0,True,pitch,4,0.66,2.304593711,2.035357952,1,implicit,True
P27,48,DLD,1,left,1.0,True,pitch,1,0.3,1.07271948,2.292121172,1,implicit,True
P100,1,DLD,5,right,0.0,False,pitch,5,0.78,2.715218455,7.535730124,1,implicit,True
P100,2,DLD,5,left,1.0,True,pitch,2,0.42,1.483344223,4.54531002,1,implicit,True
P100,3,DLD,5,left,0.0,True,pitch,1,0.3,1.07271948,4.71883297,1,implicit,True
P100,4,DLD,5,right,1.0,True,pitch,4,0.66,2.304593711,4.533302069,1,implicit,True
P100,5,DLD,5,left,1.0,True,pitch,3,0.54,1.893968967,4.246494055,1,implicit,True
P100,6,DLD,5,right,1.0,True,pitch,6,0.9,3.125843199,3.774365902,1,implicit,True
P100,7,DLD,5,left,1.0,True,pitch,1,0.3,1.07271948,2.479141951,1,implicit,True
P100,8,DLD,5,right,1.0,True,pitch,4,0.66,2.304593711,2.546409845,1,implicit,True
P100,9,DLD,5,right,0.0,True,pitch,5,0.78,2.715218455,2.252106905,1,implicit,True
P100,10,DLD,5,left,1.0,True,pitch,3,0.54,1.893968967,2.656346083,1,implicit,True
P100,11,DLD,5,left,0.0,True,pitch,2,0.42,1.483344223,2.551338196,1,implicit,True
P100,12,DLD,5,right,1.0,True,pitch,6,0.9,3.125843199,1.97852087,1,implicit,True
P100,13,DLD,5,left,1.0,True,pitch,3,0.54,1.893968967,2.247479916,1,implicit,True
P100,14,DLD,5,right,1.0,True,pitch,6,0.9,3.125843199,2.273658991,1,implicit,True
P100,15,DLD,5,left,1.0,True,pitch,2,0.42,1.483344223,2.429440022,1,implicit,True
P100,16,DLD,5,right,1.0,True,pitch,5,0.78,2.715218455,2.093612909,1,implicit,True
P100,17,DLD,5,right,0.0,True,pitch,4,0.66,2.304593711,2.16843605,1,implicit,True
P100,18,DLD,5,left,1.0,True,pitch,1,0.3,1.07271948,1.527313948,0,implicit,True
P100,19,DLD,5,left,0.0,True,pitch,1,0.3,1.07271948,3.48484683,1,implicit,True
P100,20,DLD,5,right,1.0,True,pitch,4,0.66,2.304593711,3.375521898,1,implicit,True
P100,21,DLD,5,right,0.0,True,pitch,6,0.9,3.125843199,2.46934104,0,implicit,True
P100,22,DLD,5,left,1.0,True,pitch,3,0.54,1.893968967,3.25675106,1,implicit,True
P100,23,DLD,5,right,1.0,True,pitch,5,0.78,2.715218455,2.212671041,1,implicit,True
P100,24,DLD,5,left,1.0,True,pitch,2,0.42,1.483344223,2.893746853,1,implicit,True
P100,25,DLD,5,right,0.0,True,pitch,4,0.66,2.304593711,2.286856174,1,implicit,True
P100,26,DLD,5,left,1.0,True,pitch,1,0.3,1.07271948,2.344171047,1,implicit,True
P100,27,DLD,5,right,1.0,True,pitch,6,0.9,3.125843199,2.081125975,1,implicit,True
P100,28,DLD,5,right,0.0,True,pitch,5,0.78,2.715218455,2.018399954,0,implicit,True
P100,29,DLD,5,left,1.0,True,pitch,2,0.42,1.483344223,4.28887701,1,implicit,True
P100,30,DLD,5,left,0.0,True,pitch,3,0.54,1.893968967,3.002411127,1,implicit,True
P100,31,DLD,5,right,1.0,True,pitch,6,0.9,3.125843199,1.995717049,1,implicit,True
P100,32,DLD,5,left,1.0,True,pitch,3,0.54,1.893968967,4.142039061,1,implicit,True
P100,33,DLD,5,right,1.0,True,pitch,4,0.66,2.304593711,2.978061914,1,implicit,True
P100,34,DLD,5,left,1.0,True,pitch,2,0.42,1.483344223,2.797631025,1,implicit,True
P100,35,DLD,5,left,0.0,True,pitch,1,0.3,1.07271948,2.6316998,1,implicit,True
P100,36,DLD,5,right,1.0,True,pitch,5,0.78,2.715218455,2.294165134,0,implicit,True
P100,37,DLD,5,left,1.0,True,pitch,2,0.42,1.483344223,2.928533077,1,implicit,True
P100,38,DLD,5,right,1.0,True,pitch,5,0.78,2.715218455,2.012310982,1,implicit,True
P100,39,DLD,5,left,1.0,True,pitch,3,0.54,1.893968967,2.491678,1,implicit,True
P100,40,DLD,5,left,0.0,True,pitch,1,0.3,1.07271948,2.369019032,0,implicit,True
P100,41,DLD,5,right,1.0,True,pitch,6,0.9,3.125843199,3.02738595,1,implicit,True
P100,42,DLD,5,right,0.0,True,pitch,4,0.66,2.304593711,3.550417185,1,implicit,True
P100,43,DLD,5,right,0.0,True,pitch,6,0.9,3.125843199,5.064075947,1,implicit,True
P100,44,DLD,5,left,1.0,True,pitch,3,0.54,1.893968967,3.978240013,1,implicit,True
P100,45,DLD,5,left,0.0,True,pitch,2,0.42,1.483344223,4.597206116,1,implicit,True
P100,46,DLD,5,right,1.0,True,pitch,4,0.66,2.304593711,2.677250862,1,implicit,True
P100,47,DLD,5,left,1.0,True,pitch,1,0.3,1.07271948,3.398539066,1,implicit,True
P100,48,DLD,5,right,1.0,True,pitch,5,0.78,2.715218455,3.626791954,1,implicit,True
P62,1,DLD,5,right,0.0,True,pitch,5,0.78,2.715218455,3.263264179,1,implicit,True
P62,2,DLD,5,left,1.0,True,pitch,2,0.42,1.483344223,2.813205957,1,implicit,True
P62,3,DLD,5,left,0.0,True,pitch,1,0.3,1.07271948,2.964492083,1,implicit,True
P62,4,DLD,5,right,1.0,True,pitch,4,0.66,2.304593711,3.009752989,1,implicit,True
P62,5,DLD,5,left,1.0,True,pitch,3,0.54,1.893968967,2.596860886,1,implicit,True
P62,6,DLD,5,right,1.0,True,pitch,6,0.9,3.125843199,2.412294149,1,implicit,True
P62,7,DLD,5,left,1.0,True,pitch,1,0.3,1.07271948,2.991844893,1,implicit,True
P62,8,DLD,5,right,1.0,True,pitch,4,0.66,2.304593711,3.626966,1,implicit,True
P62,9,DLD,5,right,0.0,True,pitch,5,0.78,2.715218455,2.765172005,1,implicit,True
P62,10,DLD,5,left,1.0,True,pitch,3,0.54,1.893968967,2.825165033,1,implicit,True
P62,11,DLD,5,left,0.0,True,pitch,2,0.42,1.483344223,3.28579402,1,implicit,True
P62,12,DLD,5,right,1.0,True,pitch,6,0.9,3.125843199,3.262283087,1,implicit,True
P62,13,DLD,5,left,1.0,True,pitch,3,0.54,1.893968967,4.077859163,1,implicit,True
P62,14,DLD,5,right,1.0,True,pitch,6,0.9,3.125843199,3.010048866,1,implicit,True
P62,15,DLD,5,left,1.0,True,pitch,2,0.42,1.483344223,2.415422916,1,implicit,True
P62,16,DLD,5,right,1.0,True,pitch,5,0.78,2.715218455,2.156774044,1,implicit,True
P62,17,DLD,5,right,0.0,False,pitch,4,0.66,2.304593711,1.263524055,0,implicit,True
P62,18,DLD,5,left,1.0,False,pitch,1,0.3,1.07271948,0.5101788044,1,implicit,True
P62,19,DLD,5,left,0.0,True,pitch,1,0.3,1.07271948,3.334581137,1,implicit,True
P62,20,DLD,5,right,1.0,True,pitch,4,0.66,2.304593711,2.745737076,1,implicit,True
P62,21,DLD,5,right,0.0,True,pitch,6,0.9,3.125843199,2.679063082,1,implicit,True
P62,22,DLD,5,left,1.0,True,pitch,3,0.54,1.893968967,2.82319212,1,implicit,True
P62,23,DLD,5,right,1.0,True,pitch,5,0.78,2.715218455,3.043988943,1,implicit,True
P62,24,DLD,5,left,1.0,True,pitch,2,0.42,1.483344223,2.679963112,1,implicit,True
P62,25,DLD,5,right,0.0,True,pitch,4,0.66,2.304593711,2.654469013,1,implicit,True
P62,26,DLD,5,left,1.0,True,pitch,1,0.3,1.07271948,3.496272087,1,implicit,True
P62,27,DLD,5,right,1.0,True,pitch,6,0.9,3.125843199,2.192618132,1,implicit,True
P62,28,DLD,5,right,0.0,True,pitch,5,0.78,2.715218455,1.865048885,0,implicit,True
P62,29,DLD,5,left,1.0,True,pitch,2,0.42,1.483344223,3.010943174,1,implicit,True
P62,30,DLD,5,left,0.0,True,pitch,3,0.54,1.893968967,2.702060938,1,implicit,True
P62,31,DLD,5,right,1.0,True,pitch,6,0.9,3.125843199,2.880050182,1,implicit,True
P62,32,DLD,5,left,1.0,True,pitch,3,0.54,1.893968967,2.627729177,1,implicit,True
P62,33,DLD,5,right,1.0,True,pitch,4,0.66,2.304593711,2.160791874,1,implicit,True
P62,34,DLD,5,left,1.0,True,pitch,2,0.42,1.483344223,2.813863993,1,implicit,True
P62,35,DLD,5,left,0.0,True,pitch,1,0.3,1.07271948,2.66894412,0,implicit,True
P62,36,DLD,5,right,1.0,True,pitch,5,0.78,2.715218455,3.504612923,1,implicit,True
P62,37,DLD,5,left,1.0,True,pitch,2,0.42,1.483344223,2.978509903,0,implicit,True
P62,38,DLD,5,right,1.0,True,pitch,5,0.78,2.715218455,3.262865782,0,implicit,True
P62,39,DLD,5,left,1.0,True,pitch,3,0.54,1.893968967,3.261455059,0,implicit,True
P62,40,DLD,5,left,0.0,True,pitch,1,0.3,1.07271948,3.569009781,0,implicit,True
P62,41,DLD,5,right,1.0,True,pitch,6,0.9,3.125843199,4.110470057,1,implicit,True
P62,42,DLD,5,right,0.0,True,pitch,4,0.66,2.304593711,2.632376909,1,implicit,True
P62,43,DLD,5,right,0.0,True,pitch,6,0.9,3.125843199,2.483575106,1,implicit,True
P62,44,DLD,5,left,1.0,True,pitch,3,0.54,1.893968967,2.7792871,1,implicit,True
P62,45,DLD,5,left,0.0,True,pitch,2,0.42,1.483344223,2.884157896,1,implicit,True
P62,46,DLD,5,right,1.0,True,pitch,4,0.66,2.304593711,2.594589949,1,implicit,True
P62,47,DLD,5,left,1.0,True,pitch,1,0.3,1.07271948,3.347503185,1,implicit,True
P62,48,DLD,5,right,1.0,True,pitch,5,0.78,2.715218455,3.574754,1,implicit,True
P65,1,DLD,1,left,0.0,True,pitch,1,0.3,1.07271948,3.01788187,1,implicit,True
P65,2,DLD,1,right,1.0,True,pitch,4,0.66,2.304593711,3.209078074,1,implicit,True
P65,3,DLD,1,right,0.0,True,pitch,5,0.78,2.715218455,2.833554983,1,implicit,True
P65,4,DLD,1,left,1.0,True,pitch,3,0.54,1.893968967,2.373021841,1,implicit,True
P65,5,DLD,1,left,0.0,False,pitch,2,0.42,1.483344223,13.53171206,1,implicit,False
P65,6,DLD,1,right,1.0,True,pitch,6,0.9,3.125843199,2.805762053,1,implicit,True
P65,7,DLD,1,right,0.0,True,pitch,5,0.78,2.715218455,3.164620876,1,implicit,True
P65,8,DLD,1,left,1.0,True,pitch,2,0.42,1.483344223,2.612048864,1,implicit,True
P65,9,DLD,1,left,0.0,True,pitch,1,0.3,1.07271948,2.800783157,1,implicit,True
P65,10,DLD,1,right,1.0,True,pitch,4,0.66,2.304593711,2.227290869,1,implicit,True
P65,11,DLD,1,left,1.0,True,pitch,3,0.54,1.893968967,2.56202507,1,implicit,True
P65,12,DLD,1,right,1.0,True,pitch,6,0.9,3.125843199,2.045995951,1,implicit,True
P65,13,DLD,1,right,0.0,True,pitch,4,0.66,2.304593711,2.796905994,1,implicit,True
P65,14,DLD,1,left,1.0,True,pitch,1,0.3,1.07271948,2.660192966,1,implicit,True
P65,15,DLD,1,right,1.0,True,pitch,6,0.9,3.125843199,2.4114151,1,implicit,True
P65,16,DLD,1,right,0.0,True,pitch,5,0.78,2.715218455,3.184103012,1,implicit,True
P65,17,DLD,1,left,1.0,True,pitch,2,0.42,1.483344223,2.75701189,1,implicit,True
P65,18,DLD,1,left,0.0,True,pitch,3,0.54,1.893968967,2.552503109,1,implicit,True
P65,19,DLD,1,right,1.0,True,pitch,6,0.9,3.125843199,2.624881029,1,implicit,True
P65,20,DLD,1,left,1.0,True,pitch,3,0.54,1.893968967,3.264075994,1,implicit,True
P65,21,DLD,1,right,1.0,True,pitch,4,0.66,2.304593711,2.872073174,1,implicit,True
P65,22,DLD,1,left,1.0,True,pitch,2,0.42,1.483344223,2.777409077,1,implicit,True
P65,23,DLD,1,left,0.0,True,pitch,1,0.3,1.07271948,2.687100887,1,implicit,True
P65,24,DLD,1,right,1.0,True,pitch,5,0.78,2.715218455,2.274035215,1,implicit,True
P65,25,DLD,1,left,0.0,True,pitch,2,0.42,1.483344223,2.553574085,1,implicit,True
P65,26,DLD,1,right,1.0,True,pitch,5,0.78,2.715218455,2.560989857,1,implicit,True
P65,27,DLD,1,left,1.0,True,pitch,3,0.54,1.893968967,2.67889595,1,implicit,True
P65,28,DLD,1,left,0.0,True,pitch,1,0.3,1.07271948,3.137360811,1,implicit,True
P65,29,DLD,1,right,1.0,True,pitch,6,0.9,3.125843199,2.575783014,1,implicit,True
P65,30,DLD,1,right,0.0,True,pitch,4,0.66,2.304593711,2.800379038,1,implicit,True
P65,31,DLD,1,right,0.0,True,pitch,6,0.9,3.125843199,2.666814089,1,implicit,True
P65,32,DLD,1,left,1.0,True,pitch,3,0.54,1.893968967,2.523455858,1,implicit,True
P65,33,DLD,1,left,0.0,True,pitch,2,0.42,1.483344223,3.352930069,1,implicit,True
P65,34,DLD,1,right,1.0,True,pitch,4,0.66,2.304593711,2.710353136,1,implicit,True
P65,35,DLD,1,left,1.0,True,pitch,1,0.3,1.07271948,2.879875898,1,implicit,True
P65,36,DLD,1,right,1.0,True,pitch,5,0.78,2.715218455,2.520118952,1,implicit,True
P65,37,DLD,1,left,1.0,True,pitch,1,0.3,1.07271948,2.71398592,1,implicit,True
P65,38,DLD,1,right,1.0,True,pitch,4,0.66,2.304593711,2.244740009,1,implicit,True
P65,39,DLD,1,right,0.0,True,pitch,6,0.9,3.125843199,2.751166105,1,implicit,True
P65,40,DLD,1,left,1.0,True,pitch,3,0.54,1.893968967,2.910969973,1,implicit,True
P65,41,DLD,1,right,1.0,False,pitch,5,0.78,2.715218455,4.010907888,1,implicit,True
P65,42,DLD,1,left,1.0,True,pitch,2,0.42,1.483344223,3.313953877,1,implicit,True
P65,43,DLD,1,left,0.0,True,pitch,3,0.54,1.893968967,2.917818069,1,implicit,True
P65,44,DLD,1,right,1.0,True,pitch,6,0.9,3.125843199,2.509844065,1,implicit,True
P65,45,DLD,1,left,1.0,True,pitch,2,0.42,1.483344223,2.714611053,1,implicit,True
P65,46,DLD,1,right,1.0,True,pitch,5,0.78,2.715218455,2.444099903,1,implicit,True
P65,47,DLD,1,right,0.0,True,pitch,4,0.66,2.304593711,2.165192842,1,implicit,True
P65,48,DLD,1,left,1.0,True,pitch,1,0.3,1.07271948,2.875766039,1,implicit,True
P67,1,DLD,1,left,0.0,True,pitch,1,0.3,1.07271948,3.725584984,1,implicit,True
P67,2,DLD,1,right,1.0,True,pitch,4,0.66,2.304593711,1.510595083,1,implicit,True
P67,3,DLD,1,right,0.0,True,pitch,5,0.78,2.715218455,2.453286886,1,implicit,True
P67,4,DLD,1,left,1.0,True,pitch,3,0.54,1.893968967,3.025718927,1,implicit,True
P67,5,DLD,1,left,0.0,True,pitch,2,0.42,1.483344223,2.602143049,1,implicit,True
P67,6,DLD,1,right,1.0,True,pitch,6,0.9,3.125843199,2.060065031,1,implicit,True
P67,7,DLD,1,right,0.0,True,pitch,5,0.78,2.715218455,2.403079987,1,implicit,True
P67,8,DLD,1,left,1.0,True,pitch,2,0.42,1.483344223,2.50688386,1,implicit,True
P67,9,DLD,1,left,0.0,True,pitch,1,0.3,1.07271948,2.769836903,1,implicit,True
P67,10,DLD,1,right,1.0,True,pitch,4,0.66,2.304593711,2.34266305,1,implicit,True
P67,11,DLD,1,left,1.0,True,pitch,3,0.54,1.893968967,2.814837933,1,implicit,True
P67,12,DLD,1,right,1.0,True,pitch,6,0.9,3.125843199,2.652917147,1,implicit,True
P67,13,DLD,1,right,0.0,True,pitch,4,0.66,2.304593711,3.217207909,1,implicit,True
P67,14,DLD,1,left,1.0,True,pitch,1,0.3,1.07271948,2.911943913,1,implicit,True
P67,15,DLD,1,right,1.0,True,pitch,6,0.9,3.125843199,1.944095135,1,implicit,True
P67,16,DLD,1,right,0.0,True,pitch,5,0.78,2.715218455,2.246137142,0,implicit,True
P67,17,DLD,1,left,1.0,True,pitch,2,0.42,1.483344223,2.992353916,1,implicit,True
P67,18,DLD,1,left,0.0,True,pitch,3,0.54,1.893968967,2.652922869,1,implicit,True
P67,19,DLD,1,right,1.0,True,pitch,6,0.9,3.125843199,2.546057224,1,implicit,True
P67,20,DLD,1,left,1.0,True,pitch,3,0.54,1.893968967,3.309411049,1,implicit,True
P67,21,DLD,1,right,1.0,True,pitch,4,0.66,2.304593711,3.526862144,1,implicit,True
P67,22,DLD,1,left,1.0,True,pitch,2,0.42,1.483344223,2.348115921,1,implicit,True
P67,23,DLD,1,left,0.0,True,pitch,1,0.3,1.07271948,1.351840973,0,implicit,True
P67,24,DLD,1,right,1.0,True,pitch,5,0.78,2.715218455,2.643265963,1,implicit,True
P67,25,DLD,1,left,0.0,True,pitch,2,0.42,1.483344223,3.368923187,1,implicit,True
P67,26,DLD,1,right,1.0,True,pitch,5,0.78,2.715218455,2.829947948,1,implicit,True
P67,27,DLD,1,left,1.0,True,pitch,3,0.54,1.893968967,3.557085037,1,implicit,True
P67,28,DLD,1,left,0.0,True,pitch,1,0.3,1.07271948,3.734644175,1,implicit,True
P67,29,DLD,1,right,1.0,True,pitch,6,0.9,3.125843199,2.995732069,1,implicit,True
P67,30,DLD,1,right,0.0,True,pitch,4,0.66,2.304593711,2.566002846,1,implicit,True
P67,31,DLD,1,right,0.0,True,pitch,6,0.9,3.125843199,2.750319958,1,implicit,True
P67,32,DLD,1,left,1.0,True,pitch,3,0.54,1.893968967,2.927184105,1,implicit,True
P67,33,DLD,1,left,0.0,True,pitch,2,0.42,1.483344223,3.369337082,1,implicit,True
P67,34,DLD,1,right,1.0,True,pitch,4,0.66,2.304593711,2.507879019,1,implicit,True
P67,35,DLD,1,left,1.0,True,pitch,1,0.3,1.07271948,3.179230213,1,implicit,True
P67,36,DLD,1,right,1.0,True,pitch,5,0.78,2.715218455,3.612570047,1,implicit,True
P67,37,DLD,1,left,1.0,True,pitch,1,0.3,1.07271948,2.889899015,1,implicit,True
P67,38,DLD,1,right,1.0,False,pitch,4,0.66,2.304593711,6.394567966,1,implicit,True
P67,39,DLD,1,right,0.0,True,pitch,6,0.9,3.125843199,3.098927975,1,implicit,True
P67,40,DLD,1,left,1.0,True,pitch,3,0.54,1.893968967,3.075960875,1,implicit,True
P67,41,DLD,1,right,1.0,True,pitch,5,0.78,2.715218455,2.39507103,1,implicit,True
P67,42,DLD,1,left,1.0,True,pitch,2,0.42,1.483344223,0.5136289597,1,implicit,True
P67,43,DLD,1,left,0.0,True,pitch,3,0.54,1.893968967,2.937583923,0,implicit,True
P67,44,DLD,1,right,1.0,True,pitch,6,0.9,3.125843199,2.675781012,1,implicit,True
P67,45,DLD,1,left,1.0,True,pitch,2,0.42,1.483344223,0.9466469288,1,implicit,True
P67,46,DLD,1,right,1.0,True,pitch,5,0.78,2.715218455,2.595069885,1,implicit,True
P67,47,DLD,1,right,0.0,True,pitch,4,0.66,2.304593711,3.484684944,1,implicit,True
P67,48,DLD,1,left,1.0,True,pitch,1,0.3,1.07271948,2.776607037,1,implicit,True
P68,1,DLD,6,right,0.0,True,pitch,6,0.9,3.125843199,4.70069313,1,implicit,True
P68,2,DLD,6,left,1.0,True,pitch,3,0.54,1.893968967,12.09246302,1,implicit,False
P68,3,DLD,6,left,0.0,True,pitch,2,0.42,1.483344223,5.718746901,1,implicit,True
P68,4,DLD,6,right,1.0,True,pitch,4,0.66,2.304593711,3.691120863,1,implicit,True
P68,5,DLD,6,left,1.0,True,pitch,1,0.3,1.07271948,4.096835136,1,implicit,True
P68,6,DLD,6,right,1.0,True,pitch,5,0.78,2.715218455,3.229557037,1,implicit,True
P68,7,DLD,6,left,1.0,True,pitch,1,0.3,1.07271948,4.36070013,1,implicit,True
P68,8,DLD,6,right,1.0,True,pitch,4,0.66,2.304593711,3.061594963,1,implicit,True
P68,9,DLD,6,right,0.0,True,pitch,5,0.78,2.715218455,2.951425076,1,implicit,True
P68,10,DLD,6,left,1.0,True,pitch,3,0.54,1.893968967,3.637452841,1,implicit,True
P68,11,DLD,6,left,0.0,True,pitch,2,0.42,1.483344223,4.067350149,1,implicit,True
P68,12,DLD,6,right,1.0,True,pitch,6,0.9,3.125843199,2.845974922,1,implicit,True
P68,13,DLD,6,right,0.0,True,pitch,4,0.66,2.304593711,2.4153409,1,implicit,True
P68,14,DLD,6,left,1.0,True,pitch,1,0.3,1.07271948,3.009691,1,implicit,True
P68,15,DLD,6,right,1.0,True,pitch,6,0.9,3.125843199,2.980050087,1,implicit,True
P68,16,DLD,6,right,0.0,True,pitch,5,0.78,2.715218455,2.962445021,1,implicit,True
P68,17,DLD,6,left,1.0,True,pitch,2,0.42,1.483344223,2.8617239,1,implicit,True
P68,18,DLD,6,left,0.0,True,pitch,3,0.54,1.893968967,2.767138958,1,implicit,True
P68,19,DLD,6,left,0.0,True,pitch,3,0.54,1.893968967,4.46885705,1,implicit,True
P68,20,DLD,6,right,1.0,True,pitch,6,0.9,3.125843199,3.72687006,1,implicit,True
P68,21,DLD,6,left,1.0,True,pitch,2,0.42,1.483344223,3.830530167,1,implicit,True
P68,22,DLD,6,right,1.0,True,pitch,5,0.78,2.715218455,3.67209816,1,implicit,True
P68,23,DLD,6,right,0.0,True,pitch,4,0.66,2.304593711,2.715806961,1,implicit,True
P68,24,DLD,6,left,1.0,True,pitch,1,0.3,1.07271948,3.328118086,1,implicit,True
P68,25,DLD,6,left,0.0,True,pitch,1,0.3,1.07271948,3.549849033,1,implicit,True
P68,26,DLD,6,right,1.0,True,pitch,4,0.66,2.304593711,2.660230875,1,implicit,True
P68,27,DLD,6,right,0.0,True,pitch,6,0.9,3.125843199,2.729137182,1,implicit,True
P68,28,DLD,6,left,1.0,True,pitch,3,0.54,1.893968967,3.310886145,1,implicit,True
P68,29,DLD,6,right,1.0,True,pitch,5,0.78,2.715218455,2.592570066,1,implicit,True
P68,30,DLD,6,left,1.0,True,pitch,2,0.42,1.483344223,2.597863913,1,implicit,True
P68,31,DLD,6,right,1.0,True,pitch,5,0.78,2.715218455,2.556028128,1,implicit,True
P68,32,DLD,6,left,1.0,True,pitch,2,0.42,1.483344223,2.762020111,1,implicit,True
P68,33,DLD,6,left,0.0,True,pitch,1,0.3,1.07271948,3.420811176,1,implicit,True
P68,34,DLD,6,right,1.0,True,pitch,4,0.66,2.304593711,2.538789034,1,implicit,True
P68,35,DLD,6,left,1.0,True,pitch,3,0.54,1.893968967,3.229612112,1,implicit,True
P68,36,DLD,6,right,1.0,True,pitch,6,0.9,3.125843199,3.443506956,1,implicit,True
P68,37,DLD,6,left,1.0,True,pitch,2,0.42,1.483344223,3.314165115,1,implicit,True
P68,38,DLD,6,right,1.0,True,pitch,5,0.78,2.715218455,3.844588041,1,implicit,True
P68,39,DLD,6,left,1.0,True,pitch,3,0.54,1.893968967,2.97949481,1,implicit,True
P68,40,DLD,6,left,0.0,True,pitch,1,0.3,1.07271948,3.569427967,1,implicit,True
P68,41,DLD,6,right,1.0,True,pitch,6,0.9,3.125843199,2.545800924,1,implicit,True
P68,42,DLD,6,right,0.0,True,pitch,4,0.66,2.304593711,3.166090965,1,implicit,True
P68,43,DLD,6,right,0.0,True,pitch,6,0.9,3.125843199,5.315688133,1,implicit,True
P68,44,DLD,6,left,1.0,True,pitch,3,0.54,1.893968967,3.277161837,1,implicit,True
P68,45,DLD,6,right,1.0,True,pitch,4,0.66,2.304593711,6.611389875,1,implicit,True
P68,46,DLD,6,left,1.0,False,pitch,2,0.42,1.483344223,23.03915906,1,implicit,False
P68,47,DLD,6,left,0.0,True,pitch,1,0.3,1.07271948,6.683197975,1,implicit,True
P68,48,DLD,6,right,1.0,True,pitch,5,0.78,2.715218455,2.625562191,1,implicit,True
P70,1,DLD,3,left,0.0,True,duration,3,0.54,1.893968967,2.246939898,1,implicit,True
P70,2,DLD,3,right,1.0,False,duration,6,0.9,3.125843199,0.8634829521,0,implicit,True
P70,3,DLD,3,left,1.0,False,duration,2,0.42,1.483344223,1.196028948,1,implicit,True
P70,4,DLD,3,right,1.0,True,duration,5,0.78,2.715218455,1.561241865,0,implicit,True
P70,5,DLD,3,right,0.0,True,duration,4,0.66,2.304593711,2.886543036,1,implicit,True
P70,6,DLD,3,left,1.0,True,duration,1,0.3,1.07271948,2.940189838,1,implicit,True
P70,7,DLD,3,left,0.0,True,duration,2,0.42,1.483344223,2.685772896,1,implicit,True
P70,8,DLD,3,right,1.0,True,duration,5,0.78,2.715218455,2.493510962,1,implicit,True
P70,9,DLD,3,left,1.0,True,duration,3,0.54,1.893968967,2.798507929,1,implicit,True
P70,10,DLD,3,left,0.0,True,duration,1,0.3,1.07271948,3.118155003,1,implicit,True
P70,11,DLD,3,right,1.0,True,duration,6,0.9,3.125843199,2.29401207,0,implicit,True
P70,12,DLD,3,right,0.0,True,duration,4,0.66,2.304593711,2.783888102,1,implicit,True
P70,13,DLD,3,right,0.0,True,duration,6,0.9,3.125843199,2.485434055,1,implicit,True
P70,14,DLD,3,left,1.0,True,duration,3,0.54,1.893968967,3.158109903,1,implicit,True
P70,15,DLD,3,left,0.0,True,duration,2,0.42,1.483344223,2.717824936,1,implicit,True
P70,16,DLD,3,right,1.0,True,duration,4,0.66,2.304593711,2.313951969,1,implicit,True
P70,17,DLD,3,left,1.0,True,duration,1,0.3,1.07271948,2.512567043,1,implicit,True
P70,18,DLD,3,right,1.0,True,duration,5,0.78,2.715218455,2.688246965,1,implicit,True
P70,19,DLD,3,right,0.0,True,duration,5,0.78,2.715218455,2.551239967,1,implicit,True
P70,20,DLD,3,left,1.0,True,duration,2,0.42,1.483344223,3.329617023,1,implicit,True
P70,21,DLD,3,left,0.0,True,duration,1,0.3,1.07271948,3.514569998,1,implicit,True
P70,22,DLD,3,right,1.0,True,duration,4,0.66,2.304593711,2.490725994,1,implicit,True
P70,23,DLD,3,left,1.0,True,duration,3,0.54,1.893968967,2.614830017,1,implicit,True
P70,24,DLD,3,right,1.0,True,duration,6,0.9,3.125843199,2.457721949,1,implicit,True
P70,25,DLD,3,right,0.0,True,duration,6,0.9,3.125843199,2.444469929,1,implicit,True
P70,26,DLD,3,left,1.0,True,duration,3,0.54,1.893968967,2.443758965,1,implicit,True
P70,27,DLD,3,right,1.0,True,duration,4,0.66,2.304593711,2.329540014,1,implicit,True
P70,28,DLD,3,left,1.0,True,duration,2,0.42,1.483344223,2.246446133,1,implicit,True
P70,29,DLD,3,left,0.0,True,duration,1,0.3,1.07271948,2.287220001,0,implicit,True
P70,30,DLD,3,right,1.0,True,duration,5,0.78,2.715218455,3.740845203,1,implicit,True
P70,31,DLD,3,left,1.0,True,duration,1,0.3,1.07271948,3.229840994,1,implicit,True
P70,32,DLD,3,right,1.0,True,duration,4,0.66,2.304593711,2.614592075,1,implicit,True
P70,33,DLD,3,right,0.0,True,duration,5,0.78,2.715218455,2.485368013,1,implicit,True
P70,34,DLD,3,left,1.0,True,duration,3,0.54,1.893968967,2.638889074,0,implicit,True
P70,35,DLD,3,left,0.0,True,duration,2,0.42,1.483344223,3.303499937,1,implicit,True
P70,36,DLD,3,right,1.0,True,duration,6,0.9,3.125843199,2.579757929,1,implicit,True
P70,37,DLD,3,left,1.0,True,duration,1,0.3,1.07271948,2.642578125,1,implicit,True
P70,38,DLD,3,right,1.0,True,duration,4,0.66,2.304593711,2.412465811,1,implicit,True
P70,39,DLD,3,right,0.0,True,duration,6,0.9,3.125843199,2.417399168,1,implicit,True
P70,40,DLD,3,left,1.0,True,duration,3,0.54,1.893968967,2.946348906,1,implicit,True
P70,41,DLD,3,right,1.0,True,duration,5,0.78,2.715218455,3.040827036,1,implicit,True
P70,42,DLD,3,left,1.0,True,duration,2,0.42,1.483344223,2.663271904,1,implicit,True
P70,43,DLD,3,right,1.0,True,duration,4,0.66,2.304593711,2.361875057,1,implicit,True
P70,44,DLD,3,left,1.0,True,duration,1,0.3,1.07271948,2.480530977,1,implicit,True
P70,45,DLD,3,right,1.0,True,duration,6,0.9,3.125843199,2.313628912,1,implicit,True
P70,46,DLD,3,right,0.0,True,duration,5,0.78,2.715218455,2.600431919,0,implicit,True
P70,47,DLD,3,left,1.0,True,duration,2,0.42,1.483344223,4.060760021,1,implicit,True
P70,48,DLD,3,left,0.0,True,duration,3,0.54,1.893968967,2.91613102,1,implicit,True
P71,1,DLD,5,right,0.0,True,duration,5,0.78,2.715218455,2.475142956,1,implicit,True
P71,2,DLD,5,left,1.0,True,duration,2,0.42,1.483344223,5.759624004,1,implicit,True
P71,3,DLD,5,left,0.0,True,duration,1,0.3,1.07271948,4.66702795,1,implicit,True
P71,4,DLD,5,right,1.0,True,duration,4,0.66,2.304593711,4.426326036,1,implicit,True
P71,5,DLD,5,left,1.0,True,duration,3,0.54,1.893968967,3.729455233,0,implicit,True
P71,6,DLD,5,right,1.0,True,duration,6,0.9,3.125843199,4.062638998,1,implicit,True
P71,7,DLD,5,left,1.0,True,duration,1,0.3,1.07271948,4.441852093,1,implicit,True
P71,8,DLD,5,right,1.0,True,duration,4,0.66,2.304593711,3.810355186,1,implicit,True
P71,9,DLD,5,right,0.0,True,duration,5,0.78,2.715218455,4.33535409,1,implicit,True
P71,10,DLD,5,left,1.0,True,duration,3,0.54,1.893968967,4.443205833,1,implicit,True
P71,11,DLD,5,left,0.0,True,duration,2,0.42,1.483344223,4.354818106,1,implicit,True
P71,12,DLD,5,right,1.0,True,duration,6,0.9,3.125843199,4.51984787,1,implicit,True
P71,13,DLD,5,left,1.0,True,duration,3,0.54,1.893968967,6.162966013,1,implicit,True
P71,14,DLD,5,right,1.0,True,duration,6,0.9,3.125843199,6.540019035,1,implicit,True
P71,15,DLD,5,left,1.0,True,duration,2,0.42,1.483344223,4.681509972,1,implicit,True
P71,16,DLD,5,right,1.0,True,duration,5,0.78,2.715218455,3.373352051,1,implicit,True
P71,17,DLD,5,right,0.0,True,duration,4,0.66,2.304593711,1.284024,0,implicit,True
P71,18,DLD,5,left,1.0,True,duration,1,0.3,1.07271948,1.460818052,0,implicit,True
P71,19,DLD,5,left,0.0,True,duration,1,0.3,1.07271948,0.6870441437,1,implicit,True
P71,20,DLD,5,right,1.0,True,duration,4,0.66,2.304593711,0.5108470917,1,implicit,True
P71,21,DLD,5,right,0.0,True,duration,6,0.9,3.125843199,3.850696087,1,implicit,True
P71,22,DLD,5,left,1.0,True,duration,3,0.54,1.893968967,2.894298077,1,implicit,True
P71,23,DLD,5,right,1.0,True,duration,5,0.78,2.715218455,2.861443996,1,implicit,True
P71,24,DLD,5,left,1.0,True,duration,2,0.42,1.483344223,3.014106989,1,implicit,True
P71,25,DLD,5,right,0.0,True,duration,4,0.66,2.304593711,3.001931906,1,implicit,True
P71,26,DLD,5,left,1.0,True,duration,1,0.3,1.07271948,2.860327959,1,implicit,True
P71,27,DLD,5,right,1.0,True,duration,6,0.9,3.125843199,2.644531965,1,implicit,True
P71,28,DLD,5,right,0.0,True,duration,5,0.78,2.715218455,3.332865,1,implicit,True
P71,29,DLD,5,left,1.0,True,duration,2,0.42,1.483344223,2.727857113,1,implicit,True
P71,30,DLD,5,left,0.0,True,duration,3,0.54,1.893968967,2.845621109,1,implicit,True
P71,31,DLD,5,right,1.0,True,duration,6,0.9,3.125843199,2.428228855,1,implicit,True
P71,32,DLD,5,left,1.0,True,duration,3,0.54,1.893968967,2.530758142,1,implicit,True
P71,33,DLD,5,right,1.0,True,duration,4,0.66,2.304593711,2.375151873,1,implicit,True
P71,34,DLD,5,left,1.0,True,duration,2,0.42,1.483344223,2.409888029,1,implicit,True
P71,35,DLD,5,left,0.0,True,duration,1,0.3,1.07271948,3.334197044,1,implicit,True
P71,36,DLD,5,right,1.0,True,duration,5,0.78,2.715218455,4.644834042,1,implicit,True
P71,37,DLD,5,left,1.0,True,duration,2,0.42,1.483344223,3.212090969,1,implicit,True
P71,38,DLD,5,right,1.0,True,duration,5,0.78,2.715218455,2.794723034,1,implicit,True
P71,39,DLD,5,left,1.0,True,duration,3,0.54,1.893968967,8.742401838,1,implicit,True
P71,40,DLD,5,left,0.0,True,duration,1,0.3,1.07271948,3.102674961,1,implicit,True
P71,41,DLD,5,right,1.0,True,duration,6,0.9,3.125843199,0.5117440224,0,implicit,True
P71,42,DLD,5,right,0.0,True,duration,4,0.66,2.304593711,3.103586912,1,implicit,True
P71,43,DLD,5,right,0.0,False,duration,6,0.9,3.125843199,13.86215901,1,implicit,False
P71,44,DLD,5,left,1.0,True,duration,3,0.54,1.893968967,3.360879898,1,implicit,True
P71,45,DLD,5,left,0.0,True,duration,2,0.42,1.483344223,2.967924118,1,implicit,True
P71,46,DLD,5,right,1.0,True,duration,4,0.66,2.304593711,3.12203908,1,implicit,True
P71,47,DLD,5,left,1.0,True,duration,1,0.3,1.07271948,2.813925028,1,implicit,True
P71,48,DLD,5,right,1.0,True,duration,5,0.78,2.715218455,2.445492983,1,implicit,True
P72,1,DLD,2,left,0.0,True,pitch,2,0.42,1.483344223,3.679078102,1,implicit,True
P72,2,DLD,2,right,1.0,True,pitch,5,0.78,2.715218455,3.046041012,1,implicit,True
P72,3,DLD,2,left,1.0,True,pitch,3,0.54,1.893968967,2.957468987,1,implicit,True
P72,4,DLD,2,left,0.0,True,pitch,1,0.3,1.07271948,3.401190996,1,implicit,True
P72,5,DLD,2,right,1.0,True,pitch,6,0.9,3.125843199,3.379221916,1,implicit,True
P72,6,DLD,2,right,0.0,True,pitch,4,0.66,2.304593711,3.182962894,1,implicit,True
P72,7,DLD,2,right,0.0,True,pitch,6,0.9,3.125843199,2.800576925,1,implicit,True
P72,8,DLD,2,left,1.0,True,pitch,3,0.54,1.893968967,2.843764067,1,implicit,True
P72,9,DLD,2,left,0.0,True,pitch,2,0.42,1.483344223,2.919301987,1,implicit,True
P72,10,DLD,2,right,1.0,True,pitch,4,0.66,2.304593711,3.068069935,1,implicit,True
P72,11,DLD,2,left,1.0,True,pitch,1,0.3,1.07271948,2.961330175,1,implicit,True
P72,12,DLD,2,right,1.0,True,pitch,5,0.78,2.715218455,3.030303955,1,implicit,True
P72,13,DLD,2,left,1.0,True,pitch,1,0.3,1.07271948,2.96143508,1,implicit,True
P72,14,DLD,2,right,1.0,True,pitch,4,0.66,2.304593711,3.078431129,1,implicit,True
P72,15,DLD,2,right,0.0,True,pitch,6,0.9,3.125843199,3.818451166,0,implicit,True
P72,16,DLD,2,left,1.0,True,pitch,3,0.54,1.893968967,3.00953722,0,implicit,True
P72,17,DLD,2,right,1.0,True,pitch,5,0.78,2.715218455,3.02809906,1,implicit,True
P72,18,DLD,2,left,1.0,True,pitch,2,0.42,1.483344223,2.763866901,1,implicit,True
P72,19,DLD,2,left,0.0,True,pitch,3,0.54,1.893968967,4.065426111,1,implicit,True
P72,20,DLD,2,right,1.0,True,pitch,6,0.9,3.125843199,3.492375135,1,implicit,True
P72,21,DLD,2,left,1.0,True,pitch,2,0.42,1.483344223,4.114138842,1,implicit,True
P72,22,DLD,2,right,1.0,True,pitch,5,0.78,2.715218455,4.025246143,1,implicit,True
P72,23,DLD,2,right,0.0,True,pitch,4,0.66,2.304593711,3.349205017,1,implicit,True
P72,24,DLD,2,left,1.0,True,pitch,1,0.3,1.07271948,3.510159016,1,implicit,True
P72,25,DLD,2,right,0.0,True,pitch,4,0.66,2.304593711,4.562057972,1,implicit,True
P72,26,DLD,2,left,1.0,True,pitch,1,0.3,1.07271948,3.562891006,1,implicit,True
P72,27,DLD,2,right,1.0,True,pitch,6,0.9,3.125843199,3.057497025,1,implicit,True
P72,28,DLD,2,right,0.0,True,pitch,5,0.78,2.715218455,3.032241106,1,implicit,True
P72,29,DLD,2,left,1.0,True,pitch,2,0.42,1.483344223,3.095942974,1,implicit,True
P72,30,DLD,2,left,0.0,True,pitch,3,0.54,1.893968967,3.917667866,0,implicit,True
P72,31,DLD,2,right,1.0,True,pitch,6,0.9,3.125843199,3.143320084,1,implicit,True
P72,32,DLD,2,left,1.0,True,pitch,3,0.54,1.893968967,3.898388147,1,implicit,True
P72,33,DLD,2,right,1.0,True,pitch,4,0.66,2.304593711,2.957520962,1,implicit,True
P72,34,DLD,2,left,1.0,True,pitch,2,0.42,1.483344223,2.860496998,1,implicit,True
P72,35,DLD,2,left,0.0,True,pitch,1,0.3,1.07271948,3.271091938,1,implicit,True
P72,36,DLD,2,right,1.0,True,pitch,5,0.78,2.715218455,3.391449928,1,implicit,True
P72,37,DLD,2,right,0.0,True,pitch,5,0.78,2.715218455,3.63189292,1,implicit,True
P72,38,DLD,2,left,1.0,True,pitch,2,0.42,1.483344223,4.111288786,1,implicit,True
P72,39,DLD,2,left,0.0,True,pitch,1,0.3,1.07271948,2.667264938,0,implicit,True
P72,40,DLD,2,right,1.0,True,pitch,4,0.66,2.304593711,3.778048038,1,implicit,True
P72,41,DLD,2,left,1.0,True,pitch,3,0.54,1.893968967,3.513175011,1,implicit,True
P72,42,DLD,2,right,1.0,True,pitch,6,0.9,3.125843199,2.759071827,1,implicit,True
P72,43,DLD,2,left,1.0,True,pitch,1,0.3,1.07271948,3.3460989,1,implicit,True
P72,44,DLD,2,right,1.0,False,pitch,4,0.66,2.304593711,1.163982153,1,implicit,True
P72,45,DLD,2,right,0.0,True,pitch,5,0.78,2.715218455,4.331851006,1,implicit,True
P72,46,DLD,2,left,1.0,True,pitch,3,0.54,1.893968967,3.844430923,1,implicit,True
P72,47,DLD,2,left,0.0,True,pitch,2,0.42,1.483344223,3.12211895,1,implicit,True
P72,48,DLD,2,right,1.0,True,pitch,6,0.9,3.125843199,3.58899498,1,implicit,True
P75,1,DLD,2,left,0.0,True,duration,2,0.42,1.483344223,2.945286989,1,implicit,True
P75,2,DLD,2,right,1.0,True,duration,5,0.78,2.715218455,2.478788853,1,implicit,True
P75,3,DLD,2,left,1.0,True,duration,3,0.54,1.893968967,2.613111973,1,implicit,True
P75,4,DLD,2,left,0.0,True,duration,1,0.3,1.07271948,2.838310957,1,implicit,True
P75,5,DLD,2,right,1.0,True,duration,6,0.9,3.125843199,2.258605003,1,implicit,True
P75,6,DLD,2,right,0.0,True,duration,4,0.66,2.304593711,2.384722948,1,implicit,True
P75,7,DLD,2,right,0.0,True,duration,6,0.9,3.125843199,2.135338068,1,implicit,True
P75,8,DLD,2,left,1.0,True,duration,3,0.54,1.893968967,2.878966093,1,implicit,True
P75,9,DLD,2,left,0.0,True,duration,2,0.42,1.483344223,2.517843962,0,implicit,True
P75,10,DLD,2,right,1.0,True,duration,4,0.66,2.304593711,2.892741919,1,implicit,True
P75,11,DLD,2,left,1.0,True,duration,1,0.3,1.07271948,2.796254158,1,implicit,True
P75,12,DLD,2,right,1.0,True,duration,5,0.78,2.715218455,2.262388945,1,implicit,True
P75,13,DLD,2,left,1.0,True,duration,1,0.3,1.07271948,2.62706399,1,implicit,True
P75,14,DLD,2,right,1.0,True,duration,4,0.66,2.304593711,2.146306992,1,implicit,True
P75,15,DLD,2,right,0.0,True,duration,6,0.9,3.125843199,2.716287136,1,implicit,True
P75,16,DLD,2,left,1.0,True,duration,3,0.54,1.893968967,2.628740072,1,implicit,True
P75,17,DLD,2,right,1.0,True,duration,5,0.78,2.715218455,2.24403882,1,implicit,True
P75,18,DLD,2,left,1.0,True,duration,2,0.42,1.483344223,2.430799961,1,implicit,True
P75,19,DLD,2,left,0.0,True,duration,3,0.54,1.893968967,3.036797047,1,implicit,True
P75,20,DLD,2,right,1.0,True,duration,6,0.9,3.125843199,2.396146059,1,implicit,True
P75,21,DLD,2,left,1.0,True,duration,2,0.42,1.483344223,2.576681137,1,implicit,True
P75,22,DLD,2,right,1.0,True,duration,5,0.78,2.715218455,2.49730587,1,implicit,True
P75,23,DLD,2,right,0.0,True,duration,4,0.66,2.304593711,2.582409859,1,implicit,True
P75,24,DLD,2,left,1.0,True,duration,1,0.3,1.07271948,2.59671998,1,implicit,True
P75,25,DLD,2,right,0.0,True,duration,4,0.66,2.304593711,2.383049011,1,implicit,True
P75,26,DLD,2,left,1.0,True,duration,1,0.3,1.07271948,2.745565891,1,implicit,True
P75,27,DLD,2,right,1.0,True,duration,6,0.9,3.125843199,2.204099894,1,implicit,True
P75,28,DLD,2,right,0.0,True,duration,5,0.78,2.715218455,2.3828578,1,implicit,True
P75,29,DLD,2,left,1.0,True,duration,2,0.42,1.483344223,2.545271873,1,implicit,True
P75,30,DLD,2,left,0.0,True,duration,3,0.54,1.893968967,2.835026979,1,implicit,True
P75,31,DLD,2,right,1.0,True,duration,6,0.9,3.125843199,2.305914879,1,implicit,True
P75,32,DLD,2,left,1.0,True,duration,3,0.54,1.893968967,2.778525114,1,implicit,True
P75,33,DLD,2,right,1.0,True,duration,4,0.66,2.304593711,2.414962053,1,implicit,True
P75,34,DLD,2,left,1.0,True,duration,2,0.42,1.483344223,2.610918999,1,implicit,True
P75,35,DLD,2,left,0.0,True,duration,1,0.3,1.07271948,2.935508013,1,implicit,True
P75,36,DLD,2,right,1.0,True,duration,5,0.78,2.715218455,2.476854086,1,implicit,True
P75,37,DLD,2,right,0.0,True,duration,5,0.78,2.715218455,2.385684013,1,implicit,True
P75,38,DLD,2,left,1.0,True,duration,2,0.42,1.483344223,2.725665808,1,implicit,True
P75,39,DLD,2,left,0.0,True,duration,1,0.3,1.07271948,2.969580889,1,implicit,True
P75,40,DLD,2,right,1.0,True,duration,4,0.66,2.304593711,2.643836021,1,implicit,True
P75,41,DLD,2,left,1.0,True,duration,3,0.54,1.893968967,2.781634092,1,implicit,True
P75,42,DLD,2,right,1.0,True,duration,6,0.9,3.125843199,2.159313917,1,implicit,True
P75,43,DLD,2,left,1.0,True,duration,1,0.3,1.07271948,2.729207039,1,implicit,True
P75,44,DLD,2,right,1.0,True,duration,4,0.66,2.304593711,2.446070194,1,implicit,True
P75,45,DLD,2,right,0.0,True,duration,5,0.78,2.715218455,2.534554958,1,implicit,True
P75,46,DLD,2,left,1.0,True,duration,3,0.54,1.893968967,2.62705493,1,implicit,True
P75,47,DLD,2,left,0.0,True,duration,2,0.42,1.483344223,2.551810026,1,implicit,True
P75,48,DLD,2,right,1.0,True,duration,6,0.9,3.125843199,2.511090994,1,implicit,True
P78,1,DLD,4,right,0.0,True,duration,4,0.66,2.304593711,1.68456316,0,implicit,True
P78,2,DLD,4,left,1.0,True,duration,1,0.3,1.07271948,2.644894123,0,implicit,True
P78,3,DLD,4,right,1.0,True,duration,6,0.9,3.125843199,4.562871933,1,implicit,True
P78,4,DLD,4,right,0.0,True,duration,5,0.78,2.715218455,2.480551958,1,implicit,True
P78,5,DLD,4,left,1.0,True,duration,2,0.42,1.483344223,2.212161064,0,implicit,True
P78,6,DLD,4,left,0.0,True,duration,3,0.54,1.893968967,2.266985893,1,implicit,True
P78,7,DLD,4,right,1.0,True,duration,6,0.9,3.125843199,2.661972046,1,implicit,True
P78,8,DLD,4,left,1.0,True,duration,3,0.54,1.893968967,3.110920191,1,implicit,True
P78,9,DLD,4,right,1.0,True,duration,4,0.66,2.304593711,3.146921158,1,implicit,True
P78,10,DLD,4,left,1.0,True,duration,2,0.42,1.483344223,2.511186838,0,implicit,True
P78,11,DLD,4,left,0.0,True,duration,1,0.3,1.07271948,2.568237066,1,implicit,True
P78,12,DLD,4,right,1.0,True,duration,5,0.78,2.715218455,3.145549059,1,implicit,True
P78,13,DLD,4,right,0.0,True,duration,5,0.78,2.715218455,2.826481104,1,implicit,True
P78,14,DLD,4,left,1.0,True,duration,2,0.42,1.483344223,5.175426006,0,implicit,True
P78,15,DLD,4,left,0.0,True,duration,1,0.3,1.07271948,2.604969025,0,implicit,True
P78,16,DLD,4,right,1.0,True,duration,4,0.66,2.304593711,3.888596058,1,implicit,True
P78,17,DLD,4,left,1.0,True,duration,3,0.54,1.893968967,4.662439108,1,implicit,True
P78,18,DLD,4,right,1.0,True,duration,6,0.9,3.125843199,3.196087122,1,implicit,True
P78,19,DLD,4,left,1.0,True,duration,2,0.42,1.483344223,2.591394901,1,implicit,True
P78,20,DLD,4,right,1.0,True,duration,5,0.78,2.715218455,2.209462881,1,implicit,True
P78,21,DLD,4,left,1.0,True,duration,3,0.54,1.893968967,3.13292408,1,implicit,True
P78,22,DLD,4,left,0.0,True,duration,1,0.3,1.07271948,2.731920004,1,implicit,True
P78,23,DLD,4,right,1.0,True,duration,6,0.9,3.125843199,2.910032034,0,implicit,True
P78,24,DLD,4,right,0.0,False,duration,4,0.66,2.304593711,8.214996099,0,implicit,True
P78,25,DLD,4,left,0.0,True,duration,3,0.54,1.893968967,2.667283058,1,implicit,True
P78,26,DLD,4,right,1.0,True,duration,6,0.9,3.125843199,1.681349039,0,implicit,True
P78,27,DLD,4,left,1.0,True,duration,2,0.42,1.483344223,1.510385036,0,implicit,True
P78,28,DLD,4,right,1.0,True,duration,5,0.78,2.715218455,0.8287191391,1,implicit,True
P78,29,DLD,4,right,0.0,True,duration,4,0.66,2.304593711,3.580914974,1,implicit,True
P78,30,DLD,4,left,1.0,True,duration,1,0.3,1.07271948,2.043859959,0,implicit,True
P78,31,DLD,4,left,0.0,True,duration,1,0.3,1.07271948,2.787908077,1,implicit,True
P78,32,DLD,4,right,1.0,True,duration,4,0.66,2.304593711,2.391763926,1,implicit,True
P78,33,DLD,4,right,0.0,True,duration,6,0.9,3.125843199,1.584113836,0,implicit,True
P78,34,DLD,4,left,1.0,True,duration,3,0.54,1.893968967,2.743822098,1,implicit,True
P78,35,DLD,4,right,1.0,True,duration,5,0.78,2.715218455,0.51146698,0,implicit,True
P78,36,DLD,4,left,1.0,True,duration,2,0.42,1.483344223,3.830655098,0,implicit,True
P78,37,DLD,4,right,1.0,True,duration,6,0.9,3.125843199,0.5125219822,1,implicit,True
P78,38,DLD,4,left,1.0,True,duration,3,0.54,1.893968967,4.579115152,1,implicit,True
P78,39,DLD,4,left,0.0,True,duration,2,0.42,1.483344223,3.321346045,0,implicit,True
P78,40,DLD,4,right,1.0,True,duration,4,0.66,2.304593711,3.943002224,1,implicit,True
P78,41,DLD,4,left,1.0,True,duration,1,0.3,1.07271948,3.711453915,1,implicit,True
P78,42,DLD,4,right,1.0,True,duration,5,0.78,2.715218455,0.7308139801,0,implicit,True
P78,43,DLD,4,left,1.0,True,duration,1,0.3,1.07271948,3.014358044,1,implicit,True
P78,44,DLD,4,right,1.0,True,duration,4,0.66,2.304593711,2.774062157,1,implicit,True
P78,45,DLD,4,right,0.0,True,duration,5,0.78,2.715218455,2.299948931,0,implicit,True
P78,46,DLD,4,left,1.0,True,duration,3,0.54,1.893968967,1.97765398,1,implicit,True
P78,47,DLD,4,left,0.0,True,duration,2,0.42,1.483344223,0.7891170979,1,implicit,True
P78,48,DLD,4,right,1.0,True,duration,6,0.9,3.125843199,0.5555579662,0,implicit,True
P80,1,DLD,5,right,0.0,True,pitch,5,0.78,2.715218455,3.755306959,1,implicit,True
P80,2,DLD,5,left,1.0,True,pitch,2,0.42,1.483344223,3.725916147,1,implicit,True
P80,3,DLD,5,left,0.0,False,pitch,1,0.3,1.07271948,4.319155931,1,implicit,True
P80,4,DLD,5,right,1.0,True,pitch,4,0.66,2.304593711,3.089892149,1,implicit,True
P80,5,DLD,5,left,1.0,True,pitch,3,0.54,1.893968967,3.345604897,1,implicit,True
P80,6,DLD,5,right,1.0,True,pitch,6,0.9,3.125843199,2.626595974,1,implicit,True
P80,7,DLD,5,left,1.0,True,pitch,1,0.3,1.07271948,3.245424032,1,implicit,True
P80,8,DLD,5,right,1.0,True,pitch,4,0.66,2.304593711,2.330005884,1,implicit,True
P80,9,DLD,5,right,0.0,True,pitch,5,0.78,2.715218455,2.13334012,1,implicit,True
P80,10,DLD,5,left,1.0,False,pitch,3,0.54,1.893968967,0.5114781857,0,implicit,True
P80,11,DLD,5,left,0.0,True,pitch,2,0.42,1.483344223,2.620392084,1,implicit,True
P80,12,DLD,5,right,1.0,False,pitch,6,0.9,3.125843199,0.5233359337,0,implicit,True
P80,13,DLD,5,left,1.0,True,pitch,3,0.54,1.893968967,2.343221188,1,implicit,True
P80,14,DLD,5,right,1.0,True,pitch,6,0.9,3.125843199,2.379320145,1,implicit,True
P80,15,DLD,5,left,1.0,True,pitch,2,0.42,1.483344223,2.329030991,1,implicit,True
P80,16,DLD,5,right,1.0,True,pitch,5,0.78,2.715218455,1.980993986,1,implicit,True
P80,17,DLD,5,right,0.0,True,pitch,4,0.66,2.304593711,2.230494976,1,implicit,True
P80,18,DLD,5,left,1.0,True,pitch,1,0.3,1.07271948,2.586913109,1,implicit,True
P80,19,DLD,5,left,0.0,True,pitch,1,0.3,1.07271948,2.602949858,1,implicit,True
P80,20,DLD,5,right,1.0,True,pitch,4,0.66,2.304593711,2.079754114,0,implicit,True
P80,21,DLD,5,right,0.0,False,pitch,6,0.9,3.125843199,0.5169980526,1,implicit,True
P80,22,DLD,5,left,1.0,True,pitch,3,0.54,1.893968967,2.892136812,1,implicit,True
P80,23,DLD,5,right,1.0,True,pitch,5,0.78,2.715218455,2.812590122,1,implicit,True
P80,24,DLD,5,left,1.0,True,pitch,2,0.42,1.483344223,3.212061167,0,implicit,True
P80,25,DLD,5,right,0.0,True,pitch,4,0.66,2.304593711,2.741353035,1,implicit,True
P80,26,DLD,5,left,1.0,True,pitch,1,0.3,1.07271948,2.897001982,1,implicit,True
P80,27,DLD,5,right,1.0,True,pitch,6,0.9,3.125843199,2.390925884,1,implicit,True
P80,28,DLD,5,right,0.0,True,pitch,5,0.78,2.715218455,2.533488989,1,implicit,True
P80,29,DLD,5,left,1.0,True,pitch,2,0.42,1.483344223,2.826880932,1,implicit,True
P80,30,DLD,5,left,0.0,True,pitch,3,0.54,1.893968967,2.752426863,1,implicit,True
P80,31,DLD,5,right,1.0,True,pitch,6,0.9,3.125843199,2.858952045,1,implicit,True
P80,32,DLD,5,left,1.0,True,pitch,3,0.54,1.893968967,2.495824814,1,implicit,True
P80,33,DLD,5,right,1.0,True,pitch,4,0.66,2.304593711,2.429649115,1,implicit,True
P80,34,DLD,5,left,1.0,True,pitch,2,0.42,1.483344223,2.579869986,1,implicit,True
P80,35,DLD,5,left,0.0,True,pitch,1,0.3,1.07271948,2.434561014,1,implicit,True
P80,36,DLD,5,right,1.0,True,pitch,5,0.78,2.715218455,2.427917004,1,implicit,True
P80,37,DLD,5,left,1.0,True,pitch,2,0.42,1.483344223,2.379045963,1,implicit,True
P80,38,DLD,5,right,1.0,True,pitch,5,0.78,2.715218455,2.146092176,0,implicit,True
P80,39,DLD,5,left,1.0,False,pitch,3,0.54,1.893968967,0.5091900826,0,implicit,True
P80,40,DLD,5,left,0.0,True,pitch,1,0.3,1.07271948,2.903410912,1,implicit,True
P80,41,DLD,5,right,1.0,True,pitch,6,0.9,3.125843199,2.62670207,1,implicit,True
P80,42,DLD,5,right,0.0,True,pitch,4,0.66,2.304593711,2.968170166,1,implicit,True
P80,43,DLD,5,right,0.0,True,pitch,6,0.9,3.125843199,2.880331039,1,implicit,True
P80,44,DLD,5,left,1.0,True,pitch,3,0.54,1.893968967,2.560548782,1,implicit,True
P80,45,DLD,5,left,0.0,True,pitch,2,0.42,1.483344223,2.535712957,1,implicit,True
P80,46,DLD,5,right,1.0,True,pitch,4,0.66,2.304593711,2.661642075,1,implicit,True
P80,47,DLD,5,left,1.0,True,pitch,1,0.3,1.07271948,2.577348948,1,implicit,True
P80,48,DLD,5,right,1.0,True,pitch,5,0.78,2.715218455,2.612514019,1,implicit,True
P83,1,DLD,6,right,0.0,False,pitch,6,0.9,3.125843199,4.563498974,1,implicit,True
P83,2,DLD,6,left,1.0,True,pitch,3,0.54,1.893968967,1.964364052,1,implicit,True
P83,3,DLD,6,left,0.0,True,pitch,2,0.42,1.483344223,1.452636003,1,implicit,True
P83,4,DLD,6,right,1.0,False,pitch,4,0.66,2.304593711,8.560878038,1,implicit,True
P83,5,DLD,6,left,1.0,False,pitch,1,0.3,1.07271948,4.362098932,1,implicit,True
P83,6,DLD,6,right,1.0,False,pitch,5,0.78,2.715218455,4.572140932,1,implicit,True
P83,7,DLD,6,left,1.0,False,pitch,1,0.3,1.07271948,4.410798073,1,implicit,True
P83,8,DLD,6,right,1.0,False,pitch,4,0.66,2.304593711,6.179781914,1,implicit,True
P83,9,DLD,6,right,0.0,False,pitch,5,0.78,2.715218455,4.198373079,1,implicit,True
P83,10,DLD,6,left,1.0,False,pitch,3,0.54,1.893968967,4.560853004,1,implicit,True
P83,11,DLD,6,left,0.0,False,pitch,2,0.42,1.483344223,4.717328072,1,implicit,True
P83,12,DLD,6,right,1.0,False,pitch,6,0.9,3.125843199,4.062884092,1,implicit,True
P83,13,DLD,6,right,0.0,True,pitch,4,0.66,2.304593711,3.616822958,1,implicit,True
P83,14,DLD,6,left,1.0,True,pitch,1,0.3,1.07271948,3.29390502,1,implicit,True
P83,15,DLD,6,right,1.0,False,pitch,6,0.9,3.125843199,4.462367058,1,implicit,True
P83,16,DLD,6,right,0.0,True,pitch,5,0.78,2.715218455,3.233599901,1,implicit,True
P83,17,DLD,6,left,1.0,True,pitch,2,0.42,1.483344223,3.509642124,1,implicit,True
P83,18,DLD,6,left,0.0,False,pitch,3,0.54,1.893968967,4.852313042,1,implicit,True
P83,19,DLD,6,left,0.0,False,pitch,3,0.54,1.893968967,0.685270071,1,implicit,True
P83,20,DLD,6,right,1.0,False,pitch,6,0.9,3.125843199,4.377765179,1,implicit,True
P83,21,DLD,6,left,1.0,True,pitch,2,0.42,1.483344223,3.579566956,1,implicit,True
P83,22,DLD,6,right,1.0,True,pitch,5,0.78,2.715218455,2.662187099,1,implicit,True
P83,23,DLD,6,right,0.0,False,pitch,4,0.66,2.304593711,4.468191862,1,implicit,True
P83,24,DLD,6,left,1.0,False,pitch,1,0.3,1.07271948,4.008347034,1,implicit,True
P83,25,DLD,6,left,0.0,True,pitch,1,0.3,1.07271948,2.322481871,1,implicit,True
P83,26,DLD,6,right,1.0,True,pitch,4,0.66,2.304593711,2.811449051,1,implicit,True
P83,27,DLD,6,right,0.0,True,pitch,6,0.9,3.125843199,2.794332981,1,implicit,True
P83,28,DLD,6,left,1.0,True,pitch,3,0.54,1.893968967,3.042864084,0,implicit,True
P83,29,DLD,6,right,1.0,True,pitch,5,0.78,2.715218455,2.781183958,1,implicit,True
P83,30,DLD,6,left,1.0,True,pitch,2,0.42,1.483344223,2.641326904,1,implicit,True
P83,31,DLD,6,right,1.0,True,pitch,5,0.78,2.715218455,3.212939024,1,implicit,True
P83,32,DLD,6,left,1.0,True,pitch,2,0.42,1.483344223,2.563153982,1,implicit,True
P83,33,DLD,6,left,0.0,True,pitch,1,0.3,1.07271948,3.337268114,1,implicit,True
P83,34,DLD,6,right,1.0,True,pitch,4,0.66,2.304593711,2.939790964,1,implicit,True
P83,35,DLD,6,left,1.0,True,pitch,3,0.54,1.893968967,3.311215162,1,implicit,True
P83,36,DLD,6,right,1.0,True,pitch,6,0.9,3.125843199,2.580315828,1,implicit,True
P83,37,DLD,6,left,1.0,True,pitch,2,0.42,1.483344223,2.64095521,1,implicit,True
P83,38,DLD,6,right,1.0,True,pitch,5,0.78,2.715218455,2.309241056,1,implicit,True
P83,39,DLD,6,left,1.0,True,pitch,3,0.54,1.893968967,2.661952019,1,implicit,True
P83,40,DLD,6,left,0.0,True,pitch,1,0.3,1.07271948,3.054058075,1,implicit,True
P83,41,DLD,6,right,1.0,True,pitch,6,0.9,3.125843199,2.492811203,1,implicit,True
P83,42,DLD,6,right,0.0,True,pitch,4,0.66,2.304593711,2.469398975,1,implicit,True
P83,43,DLD,6,right,0.0,True,pitch,6,0.9,3.125843199,2.282938004,1,implicit,True
P83,44,DLD,6,left,1.0,True,pitch,3,0.54,1.893968967,3.162241936,1,implicit,True
P83,45,DLD,6,right,1.0,True,pitch,4,0.66,2.304593711,2.493602991,1,implicit,True
P83,46,DLD,6,left,1.0,True,pitch,2,0.42,1.483344223,2.563297033,1,implicit,True
P83,47,DLD,6,left,0.0,True,pitch,1,0.3,1.07271948,2.620265961,0,implicit,True
P83,48,DLD,6,right,1.0,True,pitch,5,0.78,2.715218455,2.462126017,0,implicit,True
P84,1,DLD,1,left,0.0,True,duration,1,0.3,1.07271948,3.219098091,1,implicit,True
P84,2,DLD,1,right,1.0,True,duration,4,0.66,2.304593711,2.210625887,1,implicit,True
P84,3,DLD,1,right,0.0,True,duration,5,0.78,2.715218455,2.21396184,1,implicit,True
P84,4,DLD,1,left,1.0,True,duration,3,0.54,1.893968967,2.876394033,1,implicit,True
P84,5,DLD,1,left,0.0,True,duration,2,0.42,1.483344223,2.669572115,1,implicit,True
P84,6,DLD,1,right,1.0,True,duration,6,0.9,3.125843199,2.175522804,1,implicit,True
P84,7,DLD,1,right,0.0,True,duration,5,0.78,2.715218455,2.134783983,1,implicit,True
P84,8,DLD,1,left,1.0,True,duration,2,0.42,1.483344223,2.425032854,0,implicit,True
P84,9,DLD,1,left,0.0,False,duration,1,0.3,1.07271948,0.5175030231,1,implicit,True
P84,10,DLD,1,right,1.0,True,duration,4,0.66,2.304593711,2.31100297,0,implicit,True
P84,11,DLD,1,left,1.0,False,duration,3,0.54,1.893968967,0.5139210224,0,implicit,True
P84,12,DLD,1,right,1.0,True,duration,6,0.9,3.125843199,2.16121006,1,implicit,True
P84,13,DLD,1,right,0.0,True,duration,4,0.66,2.304593711,2.06846714,1,implicit,True
P84,14,DLD,1,left,1.0,True,duration,1,0.3,1.07271948,2.228458881,0,implicit,True
P84,15,DLD,1,right,1.0,False,duration,6,0.9,3.125843199,0.9597508907,0,implicit,True
P84,16,DLD,1,right,0.0,True,duration,5,0.78,2.715218455,3.300476074,1,implicit,True
P84,17,DLD,1,left,1.0,True,duration,2,0.42,1.483344223,2.611243963,1,implicit,True
P84,18,DLD,1,left,0.0,True,duration,3,0.54,1.893968967,2.769967794,1,implicit,True
P84,19,DLD,1,right,1.0,True,duration,6,0.9,3.125843199,2.11045599,0,implicit,True
P84,20,DLD,1,left,1.0,False,duration,3,0.54,1.893968967,0.5139279366,0,implicit,True
P84,21,DLD,1,right,1.0,True,duration,4,0.66,2.304593711,2.111443996,1,implicit,True
P84,22,DLD,1,left,1.0,True,duration,2,0.42,1.483344223,1.26287508,0,implicit,True
P84,23,DLD,1,left,0.0,False,duration,1,0.3,1.07271948,0.8873500824,0,implicit,True
P84,24,DLD,1,right,1.0,True,duration,5,0.78,2.715218455,2.245389938,1,implicit,True
P84,25,DLD,1,left,0.0,True,duration,2,0.42,1.483344223,2.97360301,1,implicit,True
P84,26,DLD,1,right,1.0,True,duration,5,0.78,2.715218455,2.073662043,1,implicit,True
P84,27,DLD,1,left,1.0,True,duration,3,0.54,1.893968967,2.683425903,1,implicit,True
P84,28,DLD,1,left,0.0,True,duration,1,0.3,1.07271948,2.448966026,1,implicit,True
P84,29,DLD,1,right,1.0,True,duration,6,0.9,3.125843199,1.963397026,1,implicit,True
P84,30,DLD,1,right,0.0,True,duration,4,0.66,2.304593711,1.649750948,0,implicit,True
P84,31,DLD,1,right,0.0,False,duration,6,0.9,3.125843199,0.6017119884,1,implicit,True
P84,32,DLD,1,left,1.0,False,duration,3,0.54,1.893968967,0.5115909576,0,implicit,True
P84,33,DLD,1,left,0.0,False,duration,2,0.42,1.483344223,0.5203769207,0,implicit,True
P84,34,DLD,1,right,1.0,True,duration,4,0.66,2.304593711,1.597172022,0,implicit,True
P84,35,DLD,1,left,1.0,False,duration,1,0.3,1.07271948,0.5453240871,0,implicit,True
P84,36,DLD,1,right,1.0,False,duration,5,0.78,2.715218455,0.5223121643,1,implicit,True
P84,37,DLD,1,left,1.0,True,duration,1,0.3,1.07271948,2.328365088,1,implicit,True
P84,38,DLD,1,right,1.0,True,duration,4,0.66,2.304593711,2.145999193,1,implicit,True
P84,39,DLD,1,right,0.0,True,duration,6,0.9,3.125843199,2.017935991,1,implicit,True
P84,40,DLD,1,left,1.0,True,duration,3,0.54,1.893968967,2.512230873,1,implicit,True
P84,41,DLD,1,right,1.0,True,duration,5,0.78,2.715218455,2.075762987,1,implicit,True
P84,42,DLD,1,left,1.0,True,duration,2,0.42,1.483344223,2.524320126,1,implicit,True
P84,43,DLD,1,left,0.0,True,duration,3,0.54,1.893968967,2.670425177,0,implicit,True
P84,44,DLD,1,right,1.0,True,duration,6,0.9,3.125843199,2.277908087,0,implicit,True
P84,45,DLD,1,left,1.0,False,duration,2,0.42,1.483344223,0.5149362087,0,implicit,True
P84,46,DLD,1,right,1.0,True,duration,5,0.78,2.715218455,2.476978779,1,implicit,True
P84,47,DLD,1,right,0.0,True,duration,4,0.66,2.304593711,2.230935097,1,implicit,True
P84,48,DLD,1,left,1.0,True,duration,1,0.3,1.07271948,2.510334969,0,implicit,True
P86,1,DLD,3,left,0.0,True,pitch,3,0.54,1.893968967,1.24704504,1,implicit,True
P86,2,DLD,3,right,1.0,False,pitch,6,0.9,3.125843199,1.075897932,0,implicit,True
P86,3,DLD,3,left,1.0,True,pitch,2,0.42,1.483344223,3.096007824,1,implicit,True
P86,4,DLD,3,right,1.0,True,pitch,5,0.78,2.715218455,1.97743392,1,implicit,True
P86,5,DLD,3,right,0.0,True,pitch,4,0.66,2.304593711,2.485644817,1,implicit,True
P86,6,DLD,3,left,1.0,True,pitch,1,0.3,1.07271948,2.244817019,1,implicit,True
P86,7,DLD,3,left,0.0,True,pitch,2,0.42,1.483344223,2.735911131,1,implicit,True
P86,8,DLD,3,right,1.0,True,pitch,5,0.78,2.715218455,2.24240303,1,implicit,True
P86,9,DLD,3,left,1.0,True,pitch,3,0.54,1.893968967,2.481808186,1,implicit,True
P86,10,DLD,3,left,0.0,True,pitch,1,0.3,1.07271948,2.934139013,1,implicit,True
P86,11,DLD,3,right,1.0,True,pitch,6,0.9,3.125843199,2.263563156,1,implicit,True
P86,12,DLD,3,right,0.0,True,pitch,4,0.66,2.304593711,2.599455833,1,implicit,True
P86,13,DLD,3,right,0.0,True,pitch,6,0.9,3.125843199,2.186996937,1,implicit,True
P86,14,DLD,3,left,1.0,True,pitch,3,0.54,1.893968967,2.227816105,1,implicit,True
P86,15,DLD,3,left,0.0,True,pitch,2,0.42,1.483344223,2.619033098,1,implicit,True
P86,16,DLD,3,right,1.0,True,pitch,4,0.66,2.304593711,2.394594908,1,implicit,True
P86,17,DLD,3,left,1.0,True,pitch,1,0.3,1.07271948,2.581795931,1,implicit,True
P86,18,DLD,3,right,1.0,True,pitch,5,0.78,2.715218455,2.159125805,1,implicit,True
P86,19,DLD,3,right,0.0,True,pitch,5,0.78,2.715218455,2.099097967,1,implicit,True
P86,20,DLD,3,left,1.0,True,pitch,2,0.42,1.483344223,2.459496021,1,implicit,True
P86,21,DLD,3,left,0.0,True,pitch,1,0.3,1.07271948,3.018866062,1,implicit,True
P86,22,DLD,3,right,1.0,False,pitch,4,0.66,2.304593711,0.5140340328,0,implicit,True
P86,23,DLD,3,left,1.0,False,pitch,3,0.54,1.893968967,0.5104088783,1,implicit,True
P86,24,DLD,3,right,1.0,True,pitch,6,0.9,3.125843199,2.392051935,1,implicit,True
P86,25,DLD,3,right,0.0,True,pitch,6,0.9,3.125843199,2.289797783,1,implicit,True
P86,26,DLD,3,left,1.0,True,pitch,3,0.54,1.893968967,2.527436972,1,implicit,True
P86,27,DLD,3,right,1.0,True,pitch,4,0.66,2.304593711,1.978291035,1,implicit,True
P86,28,DLD,3,left,1.0,True,pitch,2,0.42,1.483344223,3.22951293,1,implicit,True
P86,29,DLD,3,left,0.0,False,pitch,1,0.3,1.07271948,6.151594877,1,implicit,True
P86,30,DLD,3,right,1.0,True,pitch,5,0.78,2.715218455,2.629078865,1,implicit,True
P86,31,DLD,3,left,1.0,True,pitch,1,0.3,1.07271948,3.147028923,1,implicit,True
P86,32,DLD,3,right,1.0,True,pitch,4,0.66,2.304593711,2.722196817,1,implicit,True
P86,33,DLD,3,right,0.0,True,pitch,5,0.78,2.715218455,3.234941006,1,implicit,True
P86,34,DLD,3,left,1.0,True,pitch,3,0.54,1.893968967,2.528019905,1,implicit,True
P86,35,DLD,3,left,0.0,True,pitch,2,0.42,1.483344223,3.121643066,1,implicit,True
P86,36,DLD,3,right,1.0,True,pitch,6,0.9,3.125843199,2.094000816,1,implicit,True
P86,37,DLD,3,left,1.0,True,pitch,1,0.3,1.07271948,2.596233845,1,implicit,True
P86,38,DLD,3,right,1.0,True,pitch,4,0.66,2.304593711,1.213113785,0,implicit,True
P86,39,DLD,3,right,0.0,True,pitch,6,0.9,3.125843199,2.486131907,1,implicit,True
P86,40,DLD,3,left,1.0,True,pitch,3,0.54,1.893968967,2.426979065,1,implicit,True
P86,41,DLD,3,right,1.0,True,pitch,5,0.78,2.715218455,1.764995098,0,implicit,True
P86,42,DLD,3,left,1.0,False,pitch,2,0.42,1.483344223,0.5126988888,1,implicit,True
P86,43,DLD,3,right,1.0,False,pitch,4,0.66,2.304593711,0.0150539875,1,implicit,True
P86,44,DLD,3,left,1.0,True,pitch,1,0.3,1.07271948,3.27502799,1,implicit,True
P86,45,DLD,3,right,1.0,True,pitch,6,0.9,3.125843199,2.846553087,1,implicit,True
P86,46,DLD,3,right,0.0,True,pitch,5,0.78,2.715218455,3.367955923,1,implicit,True
P86,47,DLD,3,left,1.0,True,pitch,2,0.42,1.483344223,3.126580954,1,implicit,True
P86,48,DLD,3,left,0.0,True,pitch,3,0.54,1.893968967,3.388128996,1,implicit,True
P87,1,DLD,3,left,0.0,False,duration,3,0.54,1.893968967,8.644579887,1,implicit,True
P87,2,DLD,3,right,1.0,True,duration,6,0.9,3.125843199,2.240820169,1,implicit,True
P87,3,DLD,3,left,1.0,True,duration,2,0.42,1.483344223,3.741317987,0,implicit,True
P87,4,DLD,3,right,1.0,True,duration,5,0.78,2.715218455,3.228277922,0,implicit,True
P87,5,DLD,3,right,0.0,True,duration,4,0.66,2.304593711,2.86597681,1,implicit,True
P87,6,DLD,3,left,1.0,False,duration,1,0.3,1.07271948,4.47730422,0,implicit,True
P87,7,DLD,3,left,0.0,True,duration,2,0.42,1.483344223,2.801099062,0,implicit,True
P87,8,DLD,3,right,1.0,True,duration,5,0.78,2.715218455,3.663889885,1,implicit,True
P87,9,DLD,3,left,1.0,True,duration,3,0.54,1.893968967,3.041563034,1,implicit,True
P87,10,DLD,3,left,0.0,True,duration,1,0.3,1.07271948,3.519981861,0,implicit,True
P87,11,DLD,3,right,1.0,True,duration,6,0.9,3.125843199,3.274387121,1,implicit,True
P87,12,DLD,3,right,0.0,True,duration,4,0.66,2.304593711,2.569091082,0,implicit,True
P87,13,DLD,3,right,0.0,True,duration,6,0.9,3.125843199,2.851406097,1,implicit,True
P87,14,DLD,3,left,1.0,False,duration,3,0.54,1.893968967,19.50386596,1,implicit,False
P87,15,DLD,3,left,0.0,True,duration,2,0.42,1.483344223,3.616180897,1,implicit,True
P87,16,DLD,3,right,1.0,False,duration,4,0.66,2.304593711,4.559101105,1,implicit,True
P87,17,DLD,3,left,1.0,True,duration,1,0.3,1.07271948,3.693621874,1,implicit,True
P87,18,DLD,3,right,1.0,True,duration,5,0.78,2.715218455,3.673578978,1,implicit,True
P87,19,DLD,3,right,0.0,False,duration,5,0.78,2.715218455,4.032029867,1,implicit,True
P87,20,DLD,3,left,1.0,False,duration,2,0.42,1.483344223,5.378031969,1,implicit,True
P87,21,DLD,3,left,0.0,True,duration,1,0.3,1.07271948,3.051106215,1,implicit,True
P87,22,DLD,3,right,1.0,True,duration,4,0.66,2.304593711,2.791172028,1,implicit,True
P87,23,DLD,3,left,1.0,True,duration,3,0.54,1.893968967,2.528784037,1,implicit,True
P87,24,DLD,3,right,1.0,True,duration,6,0.9,3.125843199,2.743057013,1,implicit,True
P87,25,DLD,3,right,0.0,True,duration,6,0.9,3.125843199,2.658210993,1,implicit,True
P87,26,DLD,3,left,1.0,True,duration,3,0.54,1.893968967,3.587660074,1,implicit,True
P87,27,DLD,3,right,1.0,False,duration,4,0.66,2.304593711,0.02697682381,0,implicit,True
P87,28,DLD,3,left,1.0,False,duration,2,0.42,1.483344223,4.019286871,1,implicit,True
P87,29,DLD,3,left,0.0,True,duration,1,0.3,1.07271948,3.569428921,1,implicit,True
P87,30,DLD,3,right,1.0,True,duration,5,0.78,2.715218455,2.492309093,1,implicit,True
P87,31,DLD,3,left,1.0,False,duration,1,0.3,1.07271948,1.011045933,0,implicit,True
P87,32,DLD,3,right,1.0,False,duration,4,0.66,2.304593711,0.7574458122,1,implicit,True
P87,33,DLD,3,right,0.0,True,duration,5,0.78,2.715218455,2.618160963,1,implicit,True
P87,34,DLD,3,left,1.0,True,duration,3,0.54,1.893968967,3.310838938,1,implicit,True
P87,35,DLD,3,left,0.0,False,duration,2,0.42,1.483344223,4.515432835,1,implicit,True
P87,36,DLD,3,right,1.0,True,duration,6,0.9,3.125843199,2.660357952,1,implicit,True
P87,37,DLD,3,left,1.0,False,duration,1,0.3,1.07271948,4.642470121,1,implicit,True
P87,38,DLD,3,right,1.0,True,duration,4,0.66,2.304593711,3.157936096,1,implicit,True
P87,39,DLD,3,right,0.0,True,duration,6,0.9,3.125843199,2.29927206,0,implicit,True
P87,40,DLD,3,left,1.0,True,duration,3,0.54,1.893968967,1.278172016,1,implicit,True
P87,41,DLD,3,right,1.0,False,duration,5,0.78,2.715218455,0.6243078709,0,implicit,True
P87,42,DLD,3,left,1.0,False,duration,2,0.42,1.483344223,7.027517796,1,implicit,True
P87,43,DLD,3,right,1.0,True,duration,4,0.66,2.304593711,1.973814011,1,implicit,True
P87,44,DLD,3,left,1.0,True,duration,1,0.3,1.07271948,1.296329021,1,implicit,True
P87,45,DLD,3,right,1.0,False,duration,6,0.9,3.125843199,0.7436928749,1,implicit,True
P87,46,DLD,3,right,0.0,False,duration,5,0.78,2.715218455,5.94888711,1,implicit,True
P87,47,DLD,3,left,1.0,True,duration,2,0.42,1.483344223,2.576789856,1,implicit,True
P87,48,DLD,3,left,0.0,False,duration,3,0.54,1.893968967,4.052666187,1,implicit,True
P90,1,DLD,2,left,0.0,True,duration,2,0.42,1.483344223,2.416663885,1,implicit,True
P90,2,DLD,2,right,1.0,False,duration,5,0.78,2.715218455,4.594188929,1,implicit,True
P90,3,DLD,2,left,1.0,True,duration,3,0.54,1.893968967,3.825743914,1,implicit,True
P90,4,DLD,2,left,0.0,False,duration,1,0.3,1.07271948,0.5184881687,1,implicit,True
P90,5,DLD,2,right,1.0,False,duration,6,0.9,3.125843199,0.5114619732,0,implicit,True
P90,6,DLD,2,right,0.0,False,duration,4,0.66,2.304593711,4.266039133,1,implicit,True
P90,7,DLD,2,right,0.0,True,duration,6,0.9,3.125843199,3.346583843,1,implicit,True
P90,8,DLD,2,left,1.0,True,duration,3,0.54,1.893968967,2.926842928,1,implicit,True
P90,9,DLD,2,left,0.0,True,duration,2,0.42,1.483344223,2.652749777,1,implicit,True
P90,10,DLD,2,right,1.0,True,duration,4,0.66,2.304593711,2.279716969,1,implicit,True
P90,11,DLD,2,left,1.0,True,duration,1,0.3,1.07271948,2.728887081,1,implicit,True
P90,12,DLD,2,right,1.0,True,duration,5,0.78,2.715218455,2.579446793,1,implicit,True
P90,13,DLD,2,left,1.0,True,duration,1,0.3,1.07271948,3.178359032,1,implicit,True
P90,14,DLD,2,right,1.0,True,duration,4,0.66,2.304593711,2.443239927,1,implicit,True
P90,15,DLD,2,right,0.0,True,duration,6,0.9,3.125843199,3.116535902,1,implicit,True
P90,16,DLD,2,left,1.0,True,duration,3,0.54,1.893968967,2.792757988,1,implicit,True
P90,17,DLD,2,right,1.0,True,duration,5,0.78,2.715218455,2.613007069,1,implicit,True
P90,18,DLD,2,left,1.0,True,duration,2,0.42,1.483344223,2.677247047,1,implicit,True
P90,19,DLD,2,left,0.0,True,duration,3,0.54,1.893968967,3.568785906,1,implicit,True
P90,20,DLD,2,right,1.0,True,duration,6,0.9,3.125843199,3.460304976,1,implicit,True
P90,21,DLD,2,left,1.0,True,duration,2,0.42,1.483344223,3.011184931,1,implicit,True
P90,22,DLD,2,right,1.0,True,duration,5,0.78,2.715218455,2.396863937,1,implicit,True
P90,23,DLD,2,right,0.0,True,duration,4,0.66,2.304593711,2.499593973,1,implicit,True
P90,24,DLD,2,left,1.0,True,duration,1,0.3,1.07271948,2.428658962,1,implicit,True
P90,25,DLD,2,right,0.0,True,duration,4,0.66,2.304593711,2.603954077,1,implicit,True
P90,26,DLD,2,left,1.0,True,duration,1,0.3,1.07271948,2.662554026,1,implicit,True
P90,27,DLD,2,right,1.0,True,duration,6,0.9,3.125843199,3.328123808,1,implicit,True
P90,28,DLD,2,right,0.0,True,duration,5,0.78,2.715218455,2.452205181,1,implicit,True
P90,29,DLD,2,left,1.0,False,duration,2,0.42,1.483344223,0.5114798546,0,implicit,True
P90,30,DLD,2,left,0.0,False,duration,3,0.54,1.893968967,0.5202739239,0,implicit,True
P90,31,DLD,2,right,1.0,True,duration,6,0.9,3.125843199,3.546480179,1,implicit,True
P90,32,DLD,2,left,1.0,True,duration,3,0.54,1.893968967,3.37986207,1,implicit,True
P90,33,DLD,2,right,1.0,True,duration,4,0.66,2.304593711,2.68742609,1,implicit,True
P90,34,DLD,2,left,1.0,False,duration,2,0.42,1.483344223,6.027530909,1,implicit,True
P90,35,DLD,2,left,0.0,True,duration,1,0.3,1.07271948,2.803179026,1,implicit,True
P90,36,DLD,2,right,1.0,True,duration,5,0.78,2.715218455,3.738300085,1,implicit,True
P90,37,DLD,2,right,0.0,True,duration,5,0.78,2.715218455,2.716800928,1,implicit,True
P90,38,DLD,2,left,1.0,False,duration,2,0.42,1.483344223,5.078524113,1,implicit,True
P90,39,DLD,2,left,0.0,True,duration,1,0.3,1.07271948,2.851894856,1,implicit,True
P90,40,DLD,2,right,1.0,True,duration,4,0.66,2.304593711,2.192808867,1,implicit,True
P90,41,DLD,2,left,1.0,True,duration,3,0.54,1.893968967,3.382115126,1,implicit,True
P90,42,DLD,2,right,1.0,True,duration,6,0.9,3.125843199,2.326791048,1,implicit,True
P90,43,DLD,2,left,1.0,True,duration,1,0.3,1.07271948,3.296610832,1,implicit,True
P90,44,DLD,2,right,1.0,False,duration,4,0.66,2.304593711,0.5118129253,0,implicit,True
P90,45,DLD,2,right,0.0,False,duration,5,0.78,2.715218455,0.5162270069,0,implicit,True
P90,46,DLD,2,left,1.0,True,duration,3,0.54,1.893968967,3.02964592,1,implicit,True
P90,47,DLD,2,left,0.0,True,duration,2,0.42,1.483344223,3.064409018,1,implicit,True
P90,48,DLD,2,right,1.0,True,duration,6,0.9,3.125843199,3.060149193,1,implicit,True
P94,1,DLD,4,right,0.0,True,pitch,4,0.66,2.304593711,3.752337217,1,implicit,True
P94,2,DLD,4,left,1.0,True,pitch,1,0.3,1.07271948,3.029231071,1,implicit,True
P94,3,DLD,4,right,1.0,False,pitch,6,0.9,3.125843199,3.97875309,1,implicit,True
P94,4,DLD,4,right,0.0,True,pitch,5,0.78,2.715218455,2.898603916,1,implicit,True
P94,5,DLD,4,left,1.0,True,pitch,2,0.42,1.483344223,3.376527071,1,implicit,True
P94,6,DLD,4,left,0.0,True,pitch,3,0.54,1.893968967,3.066787004,1,implicit,True
P94,7,DLD,4,right,1.0,True,pitch,6,0.9,3.125843199,2.296535969,1,implicit,True
P94,8,DLD,4,left,1.0,True,pitch,3,0.54,1.893968967,3.075879812,1,implicit,True
P94,9,DLD,4,right,1.0,True,pitch,4,0.66,2.304593711,2.193209171,1,implicit,True
P94,10,DLD,4,left,1.0,True,pitch,2,0.42,1.483344223,3.065003872,1,implicit,True
P94,11,DLD,4,left,0.0,True,pitch,1,0.3,1.07271948,3.400485039,0,implicit,True
P94,12,DLD,4,right,1.0,True,pitch,5,0.78,2.715218455,3.227754831,1,implicit,True
P94,13,DLD,4,right,0.0,False,pitch,5,0.78,2.715218455,5.249346972,1,implicit,True
P94,14,DLD,4,left,1.0,True,pitch,2,0.42,1.483344223,3.156993151,1,implicit,True
P94,15,DLD,4,left,0.0,True,pitch,1,0.3,1.07271948,3.80127883,1,implicit,True
P94,16,DLD,4,right,1.0,True,pitch,4,0.66,2.304593711,2.762203932,1,implicit,True
P94,17,DLD,4,left,1.0,True,pitch,3,0.54,1.893968967,3.228311062,0,implicit,True
P94,18,DLD,4,right,1.0,True,pitch,6,0.9,3.125843199,3.693519831,1,implicit,True
P94,19,DLD,4,left,1.0,True,pitch,2,0.42,1.483344223,2.830080986,1,implicit,True
P94,20,DLD,4,right,1.0,False,pitch,5,0.78,2.715218455,6.619575977,1,implicit,True
P94,21,DLD,4,left,1.0,False,pitch,3,0.54,1.893968967,5.629585981,1,implicit,True
P94,22,DLD,4,left,0.0,True,pitch,1,0.3,1.07271948,3.118115902,0,implicit,True
P94,23,DLD,4,right,1.0,True,pitch,6,0.9,3.125843199,1.793796778,0,implicit,True
P94,24,DLD,4,right,0.0,False,pitch,4,0.66,2.304593711,1.067471981,1,implicit,True
P94,25,DLD,4,left,0.0,True,pitch,3,0.54,1.893968967,3.289132118,1,implicit,True
P94,26,DLD,4,right,1.0,True,pitch,6,0.9,3.125843199,3.07792592,1,implicit,True
P94,27,DLD,4,left,1.0,False,pitch,2,0.42,1.483344223,7.743523836,1,implicit,True
P94,28,DLD,4,right,1.0,True,pitch,5,0.78,2.715218455,2.412500858,0,implicit,True
P94,29,DLD,4,right,0.0,True,pitch,4,0.66,2.304593711,2.952517033,1,implicit,True
P94,30,DLD,4,left,1.0,True,pitch,1,0.3,1.07271948,2.972814083,1,implicit,True
P94,31,DLD,4,left,0.0,False,pitch,1,0.3,1.07271948,4.867418051,1,implicit,True
P94,32,DLD,4,right,1.0,True,pitch,4,0.66,2.304593711,2.763105869,1,implicit,True
P94,33,DLD,4,right,0.0,False,pitch,6,0.9,3.125843199,4.461097002,1,implicit,True
P94,34,DLD,4,left,1.0,False,pitch,3,0.54,1.893968967,4.544063091,1,implicit,True
P94,35,DLD,4,right,1.0,False,pitch,5,0.78,2.715218455,6.52303791,1,implicit,True
P94,36,DLD,4,left,1.0,True,pitch,2,0.42,1.483344223,3.41384697,1,implicit,True
P94,37,DLD,4,right,1.0,False,pitch,6,0.9,3.125843199,4.156563997,1,implicit,True
P94,38,DLD,4,left,1.0,True,pitch,3,0.54,1.893968967,2.030969143,1,implicit,True
P94,39,DLD,4,left,0.0,True,pitch,2,0.42,1.483344223,2.850921869,1,implicit,True
P94,40,DLD,4,right,1.0,False,pitch,4,0.66,2.304593711,1.013254881,0,implicit,True
P94,41,DLD,4,left,1.0,False,pitch,1,0.3,1.07271948,0.6460120678,1,implicit,True
P94,42,DLD,4,right,1.0,True,pitch,5,0.78,2.715218455,3.142205954,1,implicit,True
P94,43,DLD,4,left,1.0,True,pitch,1,0.3,1.07271948,3.078687906,1,implicit,True
P94,44,DLD,4,right,1.0,True,pitch,4,0.66,2.304593711,3.146119118,1,implicit,True
P94,45,DLD,4,right,0.0,True,pitch,5,0.78,2.715218455,2.735033989,1,implicit,True
P94,46,DLD,4,left,1.0,True,pitch,3,0.54,1.893968967,2.726959944,1,implicit,True
P94,47,DLD,4,left,0.0,False,pitch,2,0.42,1.483344223,4.91919899,1,implicit,True
P94,48,DLD,4,right,1.0,True,pitch,6,0.9,3.125843199,3.834886074,1,implicit,True
P95,1,DLD,1,left,0.0,False,pitch,1,0.3,1.07271948,4.451953173,1,implicit,True
P95,2,DLD,1,right,1.0,False,pitch,4,0.66,2.304593711,4.160829067,1,implicit,True
P95,3,DLD,1,right,0.0,False,pitch,5,0.78,2.715218455,4.599587917,1,implicit,True
P95,4,DLD,1,left,1.0,False,pitch,3,0.54,1.893968967,4.427896976,1,implicit,True
P95,5,DLD,1,left,0.0,False,pitch,2,0.42,1.483344223,4.03283596,1,implicit,True
P95,6,DLD,1,right,1.0,False,pitch,6,0.9,3.125843199,1.044538021,1,implicit,True
P95,7,DLD,1,right,0.0,False,pitch,5,0.78,2.715218455,4.336377144,1,implicit,True
P95,8,DLD,1,left,1.0,True,pitch,2,0.42,1.483344223,3.325807095,1,implicit,True
P95,9,DLD,1,left,0.0,False,pitch,1,0.3,1.07271948,4.583410978,1,implicit,True
P95,10,DLD,1,right,1.0,True,pitch,4,0.66,2.304593711,2.946942091,1,implicit,True
P95,11,DLD,1,left,1.0,True,pitch,3,0.54,1.893968967,3.307689905,1,implicit,True
P95,12,DLD,1,right,1.0,True,pitch,6,0.9,3.125843199,2.362298012,1,implicit,True
P95,13,DLD,1,right,0.0,True,pitch,4,0.66,2.304593711,3.766878128,1,implicit,True
P95,14,DLD,1,left,1.0,False,pitch,1,0.3,1.07271948,0.6118359566,0,implicit,True
P95,15,DLD,1,right,1.0,False,pitch,6,0.9,3.125843199,3.990141869,1,implicit,True
P95,16,DLD,1,right,0.0,True,pitch,5,0.78,2.715218455,2.949841976,1,implicit,True
P95,17,DLD,1,left,1.0,True,pitch,2,0.42,1.483344223,3.078614235,1,implicit,True
P95,18,DLD,1,left,0.0,True,pitch,3,0.54,1.893968967,3.414986849,1,implicit,True
P95,19,DLD,1,right,1.0,True,pitch,6,0.9,3.125843199,3.876813173,1,implicit,True
P95,20,DLD,1,left,1.0,False,pitch,3,0.54,1.893968967,6.37707901,1,implicit,True
P95,21,DLD,1,right,1.0,True,pitch,4,0.66,2.304593711,3.09363389,1,implicit,True
P95,22,DLD,1,left,1.0,False,pitch,2,0.42,1.483344223,4.462248087,1,implicit,True
P95,23,DLD,1,left,0.0,True,pitch,1,0.3,1.07271948,3.103406906,1,implicit,True
P95,24,DLD,1,right,1.0,False,pitch,5,0.78,2.715218455,4.677649975,1,implicit,True
P95,25,DLD,1,left,0.0,False,pitch,2,0.42,1.483344223,5.122732878,1,implicit,True
P95,26,DLD,1,right,1.0,False,pitch,5,0.78,2.715218455,4.073016882,1,implicit,True
P95,27,DLD,1,left,1.0,False,pitch,3,0.54,1.893968967,4.396008968,1,implicit,True
P95,28,DLD,1,left,0.0,False,pitch,1,0.3,1.07271948,4.333059072,1,implicit,True
P95,29,DLD,1,right,1.0,True,pitch,6,0.9,3.125843199,3.258939981,1,implicit,True
P95,30,DLD,1,right,0.0,False,pitch,4,0.66,2.304593711,4.434365988,1,implicit,True
P95,31,DLD,1,right,0.0,False,pitch,6,0.9,3.125843199,4.151038885,1,implicit,True
P95,32,DLD,1,left,1.0,False,pitch,3,0.54,1.893968967,4.692904949,1,implicit,True
P95,33,DLD,1,left,0.0,True,pitch,2,0.42,1.483344223,3.648937941,1,implicit,True
P95,34,DLD,1,right,1.0,True,pitch,4,0.66,2.304593711,3.160462141,1,implicit,True
P95,35,DLD,1,left,1.0,True,pitch,1,0.3,1.07271948,3.297322035,1,implicit,True
P95,36,DLD,1,right,1.0,True,pitch,5,0.78,2.715218455,3.94025898,1,implicit,True
P95,37,DLD,1,left,1.0,True,pitch,1,0.3,1.07271948,3.361504078,1,implicit,True
P95,38,DLD,1,right,1.0,True,pitch,4,0.66,2.304593711,3.26274085,1,implicit,True
P95,39,DLD,1,right,0.0,False,pitch,6,0.9,3.125843199,4.147295952,1,implicit,True
P95,40,DLD,1,left,1.0,False,pitch,3,0.54,1.893968967,9.426029921,1,implicit,True
P95,41,DLD,1,right,1.0,False,pitch,5,0.78,2.715218455,4.626935959,1,implicit,True
P95,42,DLD,1,left,1.0,False,pitch,2,0.42,1.483344223,4.347419024,1,implicit,True
P95,43,DLD,1,left,0.0,False,pitch,3,0.54,1.893968967,7.535630941,1,implicit,True
P95,44,DLD,1,right,1.0,False,pitch,6,0.9,3.125843199,6.768051147,1,implicit,True
P95,45,DLD,1,left,1.0,False,pitch,2,0.42,1.483344223,4.04836607,1,implicit,True
P95,46,DLD,1,right,1.0,False,pitch,5,0.78,2.715218455,3.960381985,1,implicit,True
P95,47,DLD,1,right,0.0,False,pitch,4,0.66,2.304593711,5.650688887,1,implicit,True
P95,48,DLD,1,left,1.0,True,pitch,1,0.3,1.07271948,3.756895065,1,implicit,True
p98,1,DLD,3,left,0.0,True,duration,3,0.54,1.893968967,3.222172022,1,implicit,True
p98,2,DLD,3,right,1.0,True,duration,6,0.9,3.125843199,2.145411015,1,implicit,True
p98,3,DLD,3,left,1.0,True,duration,2,0.42,1.483344223,2.295547962,1,implicit,True
p98,4,DLD,3,right,1.0,True,duration,5,0.78,2.715218455,1.93056798,1,implicit,True
p98,5,DLD,3,right,0.0,True,duration,4,0.66,2.304593711,2.048240185,0,implicit,True
p98,6,DLD,3,left,1.0,True,duration,1,0.3,1.07271948,3.012902021,1,implicit,True
p98,7,DLD,3,left,0.0,True,duration,2,0.42,1.483344223,3.617059946,1,implicit,True
p98,8,DLD,3,right,1.0,True,duration,5,0.78,2.715218455,2.661201,1,implicit,True
p98,9,DLD,3,left,1.0,True,duration,3,0.54,1.893968967,3.362682104,1,implicit,True
p98,10,DLD,3,left,0.0,True,duration,1,0.3,1.07271948,2.987243891,1,implicit,True
p98,11,DLD,3,right,1.0,True,duration,6,0.9,3.125843199,1.508711815,0,implicit,True
p98,12,DLD,3,right,0.0,True,duration,4,0.66,2.304593711,3.068061113,1,implicit,True
p98,13,DLD,3,right,0.0,True,duration,6,0.9,3.125843199,2.600902081,1,implicit,True
p98,14,DLD,3,left,1.0,True,duration,3,0.54,1.893968967,3.209854126,1,implicit,True
p98,15,DLD,3,left,0.0,True,duration,2,0.42,1.483344223,2.787374973,1,implicit,True
p98,16,DLD,3,right,1.0,True,duration,4,0.66,2.304593711,2.976329088,1,implicit,True
p98,17,DLD,3,left,1.0,True,duration,1,0.3,1.07271948,2.730412006,1,implicit,True
p98,18,DLD,3,right,1.0,True,duration,5,0.78,2.715218455,2.12920785,1,implicit,True
p98,19,DLD,3,right,0.0,True,duration,5,0.78,2.715218455,2.267481089,0,implicit,True
p98,20,DLD,3,left,1.0,True,duration,2,0.42,1.483344223,3.359557152,1,implicit,True
p98,21,DLD,3,left,0.0,True,duration,1,0.3,1.07271948,2.955523014,1,implicit,True
p98,22,DLD,3,right,1.0,True,duration,4,0.66,2.304593711,2.207363129,1,implicit,True
p98,23,DLD,3,left,1.0,True,duration,3,0.54,1.893968967,3.578593016,1,implicit,True
p98,24,DLD,3,right,1.0,True,duration,6,0.9,3.125843199,2.730421066,1,implicit,True
p98,25,DLD,3,right,0.0,True,duration,6,0.9,3.125843199,2.422691822,1,implicit,True
p98,26,DLD,3,left,1.0,True,duration,3,0.54,1.893968967,2.72843194,1,implicit,True
p98,27,DLD,3,right,1.0,True,duration,4,0.66,2.304593711,2.094954014,1,implicit,True
p98,28,DLD,3,left,1.0,True,duration,2,0.42,1.483344223,2.404628992,1,implicit,True
p98,29,DLD,3,left,0.0,True,duration,1,0.3,1.07271948,3.068069935,1,implicit,True
p98,30,DLD,3,right,1.0,True,duration,5,0.78,2.715218455,2.779505014,1,implicit,True
p98,31,DLD,3,left,1.0,True,duration,1,0.3,1.07271948,2.577205896,1,implicit,True
p98,32,DLD,3,right,1.0,True,duration,4,0.66,2.304593711,2.013557911,1,implicit,True
p98,33,DLD,3,right,0.0,True,duration,5,0.78,2.715218455,2.798555136,1,implicit,True
p98,34,DLD,3,left,1.0,True,duration,3,0.54,1.893968967,2.696825027,1,implicit,True
p98,35,DLD,3,left,0.0,True,duration,2,0.42,1.483344223,3.300964117,1,implicit,True
p98,36,DLD,3,right,1.0,True,duration,6,0.9,3.125843199,2.827458143,1,implicit,True
p98,37,DLD,3,left,1.0,True,duration,1,0.3,1.07271948,2.963943005,1,implicit,True
p98,38,DLD,3,right,1.0,True,duration,4,0.66,2.304593711,2.743667841,1,implicit,True
p98,39,DLD,3,right,0.0,True,duration,6,0.9,3.125843199,2.780330181,1,implicit,True
p98,40,DLD,3,left,1.0,True,duration,3,0.54,1.893968967,3.260221004,1,implicit,True
p98,41,DLD,3,right,1.0,True,duration,5,0.78,2.715218455,2.746501923,1,implicit,True
p98,42,DLD,3,left,1.0,True,duration,2,0.42,1.483344223,2.743382931,1,implicit,True
p98,43,DLD,3,right,1.0,True,duration,4,0.66,2.304593711,2.192292213,1,implicit,True
p98,44,DLD,3,left,1.0,True,duration,1,0.3,1.07271948,2.51305604,1,implicit,True
p98,45,DLD,3,right,1.0,True,duration,6,0.9,3.125843199,2.213739872,1,implicit,True
p98,46,DLD,3,right,0.0,True,duration,5,0.78,2.715218455,2.797951937,1,implicit,True
p98,47,DLD,3,left,1.0,False,duration,2,0.42,1.483344223,4.07572484,1,implicit,True
p98,48,DLD,3,left,0.0,True,duration,3,0.54,1.893968967,3.087363958,1,implicit,True
P99,1,DLD,2,left,0.0,False,pitch,2,0.42,1.483344223,4.490427971,1,implicit,True
P99,2,DLD,2,right,1.0,False,pitch,5,0.78,2.715218455,7.843832016,0,implicit,True
P99,3,DLD,2,left,1.0,True,pitch,3,0.54,1.893968967,1.395164013,0,implicit,True
P99,4,DLD,2,left,0.0,False,pitch,1,0.3,1.07271948,6.867291927,1,implicit,True
P99,5,DLD,2,right,1.0,False,pitch,6,0.9,3.125843199,0.513066053,0,implicit,True
P99,6,DLD,2,right,0.0,False,pitch,4,0.66,2.304593711,0.517960072,0,implicit,True
P99,7,DLD,2,right,0.0,True,pitch,6,0.9,3.125843199,3.884402037,0,implicit,True
P99,8,DLD,2,left,1.0,False,pitch,3,0.54,1.893968967,0.512403011,1,implicit,True
P99,9,DLD,2,left,0.0,False,pitch,2,0.42,1.483344223,0.520264149,0,implicit,True
P99,10,DLD,2,right,1.0,False,pitch,4,0.66,2.304593711,0.510782957,1,implicit,True
P99,11,DLD,2,left,1.0,False,pitch,1,0.3,1.07271948,0.509898901,0,implicit,True
P99,12,DLD,2,right,1.0,False,pitch,5,0.78,2.715218455,4.642849207,1,implicit,True
P99,13,DLD,2,left,1.0,True,pitch,1,0.3,1.07271948,1.89567709,1,implicit,True
P99,14,DLD,2,right,1.0,False,pitch,4,0.66,2.304593711,3.963947058,1,implicit,True
P99,15,DLD,2,right,0.0,True,pitch,6,0.9,3.125843199,3.280905008,1,implicit,True
P99,16,DLD,2,left,1.0,False,pitch,3,0.54,1.893968967,4.441304922,1,implicit,True
P99,17,DLD,2,right,1.0,True,pitch,5,0.78,2.715218455,3.712192059,1,implicit,True
P99,18,DLD,2,left,1.0,True,pitch,2,0.42,1.483344223,3.529135942,1,implicit,True
P99,19,DLD,2,left,0.0,False,pitch,3,0.54,1.893968967,5.619400024,1,implicit,True
P99,20,DLD,2,right,1.0,True,pitch,6,0.9,3.125843199,3.674774885,1,implicit,True
P99,21,DLD,2,left,1.0,False,pitch,2,0.42,1.483344223,7.509225845,1,implicit,True
P99,22,DLD,2,right,1.0,False,pitch,5,0.78,2.715218455,5.44532609,1,implicit,True
P99,23,DLD,2,right,0.0,False,pitch,4,0.66,2.304593711,11.71557117,1,implicit,False
P99,24,DLD,2,left,1.0,True,pitch,1,0.3,1.07271948,1.929162979,0,implicit,True
P99,25,DLD,2,right,0.0,False,pitch,4,0.66,2.304593711,4.439971924,1,implicit,True
P99,26,DLD,2,left,1.0,False,pitch,1,0.3,1.07271948,6.629728079,1,implicit,True
P99,27,DLD,2,right,1.0,False,pitch,6,0.9,3.125843199,0.521226168,0,implicit,True
P99,28,DLD,2,right,0.0,False,pitch,5,0.78,2.715218455,5.321519136,1,implicit,True
P99,29,DLD,2,left,1.0,False,pitch,2,0.42,1.483344223,6.792067051,1,implicit,True
P99,30,DLD,2,left,0.0,False,pitch,3,0.54,1.893968967,30.32609987,0,implicit,False
P99,31,DLD,2,right,1.0,True,pitch,6,0.9,3.125843199,3.078075886,1,implicit,True
P99,32,DLD,2,left,1.0,False,pitch,3,0.54,1.893968967,5.246026039,1,implicit,True
P99,33,DLD,2,right,1.0,False,pitch,4,0.66,2.304593711,4.758210897,1,implicit,True
P99,34,DLD,2,left,1.0,True,pitch,2,0.42,1.483344223,3.410253048,1,implicit,True
P99,35,DLD,2,left,0.0,True,pitch,1,0.3,1.07271948,1.138756037,0,implicit,True
P99,36,DLD,2,right,1.0,False,pitch,5,0.78,2.715218455,4.595164061,1,implicit,True
P99,37,DLD,2,right,0.0,True,pitch,5,0.78,2.715218455,3.26494503,1,implicit,True
P99,38,DLD,2,left,1.0,False,pitch,2,0.42,1.483344223,7.291288853,1,implicit,True
P99,39,DLD,2,left,0.0,False,pitch,1,0.3,1.07271948,6.552600861,1,implicit,True
P99,40,DLD,2,right,1.0,True,pitch,4,0.66,2.304593711,2.893546104,1,implicit,True
P99,41,DLD,2,left,1.0,True,pitch,3,0.54,1.893968967,3.629249096,1,implicit,True
P99,42,DLD,2,right,1.0,True,pitch,6,0.9,3.125843199,2.663975954,1,implicit,True
P99,43,DLD,2,left,1.0,True,pitch,1,0.3,1.07271948,3.079914093,1,implicit,True
P99,44,DLD,2,right,1.0,True,pitch,4,0.66,2.304593711,2.178442001,1,implicit,True
P99,45,DLD,2,right,0.0,True,pitch,5,0.78,2.715218455,2.701510906,1,implicit,True
P99,46,DLD,2,left,1.0,True,pitch,3,0.54,1.893968967,3.095099926,1,implicit,True
P99,47,DLD,2,left,0.0,True,pitch,2,0.42,1.483344223,2.903202057,1,implicit,True
P99,48,DLD,2,right,1.0,True,pitch,6,0.9,3.125843199,2.492646933,1,implicit,True
P103,1,DLD,6,right,0.0,True,duration,6,0.9,3.125843199,5.682397127,1,implicit,True
P103,2,DLD,6,left,1.0,True,duration,3,0.54,1.893968967,4.479328871,1,implicit,True
P103,3,DLD,6,left,0.0,True,duration,2,0.42,1.483344223,5.352352858,1,implicit,True
P103,4,DLD,6,right,1.0,True,duration,4,0.66,2.304593711,4.193971157,1,implicit,True
P103,5,DLD,6,left,1.0,True,duration,1,0.3,1.07271948,5.2784729,1,implicit,True
P103,6,DLD,6,right,1.0,True,duration,5,0.78,2.715218455,4.392247915,1,implicit,True
P103,7,DLD,6,left,1.0,True,duration,1,0.3,1.07271948,5.345492125,1,implicit,True
P103,8,DLD,6,right,1.0,True,duration,4,0.66,2.304593711,4.391919851,1,implicit,True
P103,9,DLD,6,right,0.0,True,duration,5,0.78,2.715218455,4.38338089,1,implicit,True
P103,10,DLD,6,left,1.0,True,duration,3,0.54,1.893968967,5.106305122,1,implicit,True
P103,11,DLD,6,left,0.0,True,duration,2,0.42,1.483344223,5.20235014,1,implicit,True
P103,12,DLD,6,right,1.0,True,duration,6,0.9,3.125843199,4.907552958,1,implicit,True
P103,13,DLD,6,right,0.0,True,duration,4,0.66,2.304593711,4.181334019,1,implicit,True
P103,14,DLD,6,left,1.0,True,duration,1,0.3,1.07271948,4.427163124,1,implicit,True
P103,15,DLD,6,right,1.0,True,duration,6,0.9,3.125843199,3.878443956,1,implicit,True
P103,16,DLD,6,right,0.0,True,duration,5,0.78,2.715218455,6.80082798,1,implicit,True
P103,17,DLD,6,left,1.0,True,duration,2,0.42,1.483344223,5.458674908,1,implicit,True
P103,18,DLD,6,left,0.0,True,duration,3,0.54,1.893968967,6.601960182,1,implicit,True
P103,19,DLD,6,left,0.0,True,duration,3,0.54,1.893968967,3.600601912,1,implicit,True
P103,20,DLD,6,right,1.0,True,duration,6,0.9,3.125843199,2.996216059,1,implicit,True
P103,21,DLD,6,left,1.0,True,duration,2,0.42,1.483344223,3.259649992,1,implicit,True
P103,22,DLD,6,right,1.0,True,duration,5,0.78,2.715218455,3.910434008,1,implicit,True
P103,23,DLD,6,right,0.0,True,duration,4,0.66,2.304593711,3.002015829,1,implicit,True
P103,24,DLD,6,left,1.0,True,duration,1,0.3,1.07271948,3.327266932,1,implicit,True
P103,25,DLD,6,left,0.0,True,duration,1,0.3,1.07271948,5.224871159,1,implicit,True
P103,26,DLD,6,right,1.0,True,duration,4,0.66,2.304593711,2.962154865,1,implicit,True
P103,27,DLD,6,right,0.0,True,duration,6,0.9,3.125843199,7.747917891,1,implicit,True
P103,28,DLD,6,left,1.0,True,duration,3,0.54,1.893968967,5.208753109,1,implicit,True
P103,29,DLD,6,right,1.0,True,duration,5,0.78,2.715218455,5.577980042,1,implicit,True
P103,30,DLD,6,left,1.0,True,duration,2,0.42,1.483344223,4.795143127,1,implicit,True
P103,31,DLD,6,right,1.0,True,duration,5,0.78,2.715218455,8.777069092,1,implicit,True
P103,32,DLD,6,left,1.0,True,duration,2,0.42,1.483344223,8.678694963,1,implicit,True
P103,33,DLD,6,left,0.0,True,duration,1,0.3,1.07271948,5.73548007,1,implicit,True
P103,34,DLD,6,right,1.0,True,duration,4,0.66,2.304593711,5.490777969,1,implicit,True
P103,35,DLD,6,left,1.0,True,duration,3,0.54,1.893968967,10.09099197,1,implicit,False
P103,36,DLD,6,right,1.0,True,duration,6,0.9,3.125843199,3.795222998,1,implicit,True
P103,37,DLD,6,left,1.0,True,duration,2,0.42,1.483344223,6.944178104,1,implicit,True
P103,38,DLD,6,right,1.0,True,duration,5,0.78,2.715218455,9.42607522,1,implicit,True
P103,39,DLD,6,left,1.0,True,duration,3,0.54,1.893968967,5.013003111,1,implicit,True
P103,40,DLD,6,left,0.0,True,duration,1,0.3,1.07271948,3.418351889,1,implicit,True
P103,41,DLD,6,right,1.0,True,duration,6,0.9,3.125843199,6.440367937,1,implicit,True
P103,42,DLD,6,right,0.0,True,duration,4,0.66,2.304593711,7.831896067,1,implicit,True
P103,43,DLD,6,right,0.0,True,duration,6,0.9,3.125843199,9.481991053,1,implicit,True
P103,44,DLD,6,left,1.0,True,duration,3,0.54,1.893968967,3.945654869,1,implicit,True
P103,45,DLD,6,right,1.0,True,duration,4,0.66,2.304593711,3.040730953,1,implicit,True
P103,46,DLD,6,left,1.0,True,duration,2,0.42,1.483344223,3.130954027,1,implicit,True
P103,47,DLD,6,left,0.0,True,duration,1,0.3,1.07271948,3.369438887,1,implicit,True
P103,48,DLD,6,right,1.0,True,duration,5,0.78,2.715218455,2.626248121,1,implicit,True
P104,1,DLD,4,right,0.0,False,duration,4,0.66,2.304593711,2.82820487,1,implicit,True
P104,2,DLD,4,left,1.0,True,duration,1,0.3,1.07271948,4.261536837,1,implicit,True
P104,3,DLD,4,right,1.0,True,duration,6,0.9,3.125843199,4.077569962,1,implicit,True
P104,4,DLD,4,right,0.0,True,duration,5,0.78,2.715218455,3.867518902,1,implicit,True
P104,5,DLD,4,left,1.0,True,duration,2,0.42,1.483344223,3.573787928,1,implicit,True
P104,6,DLD,4,left,0.0,True,duration,3,0.54,1.893968967,3.618161917,1,implicit,True
P104,7,DLD,4,right,1.0,True,duration,6,0.9,3.125843199,4.078154087,1,implicit,True
P104,8,DLD,4,left,1.0,True,duration,3,0.54,1.893968967,4.628921032,1,implicit,True
P104,9,DLD,4,right,1.0,True,duration,4,0.66,2.304593711,3.413275003,1,implicit,True
P104,10,DLD,4,left,1.0,True,duration,2,0.42,1.483344223,3.811582088,1,implicit,True
P104,11,DLD,4,left,0.0,True,duration,1,0.3,1.07271948,3.1854949,1,implicit,True
P104,12,DLD,4,right,1.0,True,duration,5,0.78,2.715218455,3.994534969,1,implicit,True
P104,13,DLD,4,right,0.0,True,duration,5,0.78,2.715218455,4.184684992,1,implicit,True
P104,14,DLD,4,left,1.0,True,duration,2,0.42,1.483344223,3.275935173,1,implicit,True
P104,15,DLD,4,left,0.0,True,duration,1,0.3,1.07271948,3.637016058,1,implicit,True
P104,16,DLD,4,right,1.0,True,duration,4,0.66,2.304593711,3.677715063,1,implicit,True
P104,17,DLD,4,left,1.0,True,duration,3,0.54,1.893968967,3.81339407,1,implicit,True
P104,18,DLD,4,right,1.0,True,duration,6,0.9,3.125843199,4.210668087,1,implicit,True
P104,19,DLD,4,left,1.0,True,duration,2,0.42,1.483344223,4.529663086,1,implicit,True
P104,20,DLD,4,right,1.0,True,duration,5,0.78,2.715218455,4.194747925,1,implicit,True
P104,21,DLD,4,left,1.0,True,duration,3,0.54,1.893968967,4.330225945,1,implicit,True
P104,22,DLD,4,left,0.0,True,duration,1,0.3,1.07271948,4.470556974,1,implicit,True
P104,23,DLD,4,right,1.0,True,duration,6,0.9,3.125843199,4.475604057,1,implicit,True
P104,24,DLD,4,right,0.0,True,duration,4,0.66,2.304593711,4.015276909,1,implicit,True
P104,25,DLD,4,left,0.0,True,duration,3,0.54,1.893968967,3.946746111,1,implicit,True
P104,26,DLD,4,right,1.0,True,duration,6,0.9,3.125843199,4.336680174,1,implicit,True
P104,27,DLD,4,left,1.0,True,duration,2,0.42,1.483344223,4.012964964,1,implicit,True
P104,28,DLD,4,right,1.0,True,duration,5,0.78,2.715218455,3.862436056,1,implicit,True
P104,29,DLD,4,right,0.0,True,duration,4,0.66,2.304593711,4.98328495,1,implicit,True
P104,30,DLD,4,left,1.0,True,duration,1,0.3,1.07271948,4.345135927,1,implicit,True
P104,31,DLD,4,left,0.0,True,duration,1,0.3,1.07271948,4.351191044,1,implicit,True
P104,32,DLD,4,right,1.0,True,duration,4,0.66,2.304593711,4.358274937,1,implicit,True
P104,33,DLD,4,right,0.0,True,duration,6,0.9,3.125843199,4.43325901,1,implicit,True
P104,34,DLD,4,left,1.0,True,duration,3,0.54,1.893968967,4.510296822,1,implicit,True
P104,35,DLD,4,right,1.0,True,duration,5,0.78,2.715218455,4.81328702,1,implicit,True
P104,36,DLD,4,left,1.0,True,duration,2,0.42,1.483344223,4.309046984,1,implicit,True
P104,37,DLD,4,right,1.0,True,duration,6,0.9,3.125843199,4.361642122,1,implicit,True
P104,38,DLD,4,left,1.0,True,duration,3,0.54,1.893968967,4.725977898,1,implicit,True
P104,39,DLD,4,left,0.0,True,duration,2,0.42,1.483344223,4.454516888,1,implicit,True
P104,40,DLD,4,right,1.0,True,duration,4,0.66,2.304593711,4.288503885,1,implicit,True
P104,41,DLD,4,left,1.0,True,duration,1,0.3,1.07271948,3.662501812,1,implicit,True
P104,42,DLD,4,right,1.0,True,duration,5,0.78,2.715218455,3.897716045,1,implicit,True
P104,43,DLD,4,left,1.0,True,duration,1,0.3,1.07271948,3.096127987,1,implicit,True
P104,44,DLD,4,right,1.0,True,duration,4,0.66,2.304593711,3.442597151,1,implicit,True
P104,45,DLD,4,right,0.0,True,duration,5,0.78,2.715218455,3.885856152,1,implicit,True
P104,46,DLD,4,left,1.0,True,duration,3,0.54,1.893968967,4.042938948,1,implicit,True
P104,47,DLD,4,left,0.0,True,duration,2,0.42,1.483344223,4.93614316,1,implicit,True
P104,48,DLD,4,right,1.0,True,duration,6,0.9,3.125843199,3.807420969,1,implicit,True
P105,1,DLD,5,right,0.0,True,duration,5,0.78,2.715218455,5.81928587,1,implicit,True
P105,2,DLD,5,left,1.0,True,duration,2,0.42,1.483344223,5.361170053,1,implicit,True
P105,3,DLD,5,left,0.0,True,duration,1,0.3,1.07271948,5.75111413,1,implicit,True
P105,4,DLD,5,right,1.0,True,duration,4,0.66,2.304593711,5.346302032,1,implicit,True
P105,5,DLD,5,left,1.0,True,duration,3,0.54,1.893968967,5.073175192,1,implicit,True
P105,6,DLD,5,right,1.0,True,duration,6,0.9,3.125843199,5.166002035,1,implicit,True
P105,7,DLD,5,left,1.0,True,duration,1,0.3,1.07271948,5.30786109,1,implicit,True
P105,8,DLD,5,right,1.0,True,duration,4,0.66,2.304593711,4.730031013,1,implicit,True
P105,9,DLD,5,right,0.0,True,duration,5,0.78,2.715218455,7.014018059,1,implicit,True
P105,10,DLD,5,left,1.0,True,duration,3,0.54,1.893968967,5.459169149,1,implicit,True
P105,11,DLD,5,left,0.0,True,duration,2,0.42,1.483344223,5.069108963,1,implicit,True
P105,12,DLD,5,right,1.0,True,duration,6,0.9,3.125843199,5.44285512,1,implicit,True
P105,13,DLD,5,left,1.0,True,duration,3,0.54,1.893968967,5.227944136,1,implicit,True
P105,14,DLD,5,right,1.0,True,duration,6,0.9,3.125843199,4.595279932,1,implicit,True
P105,15,DLD,5,left,1.0,True,duration,2,0.42,1.483344223,4.695400953,1,implicit,True
P105,16,DLD,5,right,1.0,True,duration,5,0.78,2.715218455,4.863209963,1,implicit,True
P105,17,DLD,5,right,0.0,True,duration,4,0.66,2.304593711,5.100568056,1,implicit,True
P105,18,DLD,5,left,1.0,True,duration,1,0.3,1.07271948,5.560323,0,implicit,True
P105,19,DLD,5,left,0.0,True,duration,1,0.3,1.07271948,5.351341963,0,implicit,True
P105,20,DLD,5,right,1.0,False,duration,4,0.66,2.304593711,36.03451204,1,implicit,False
P105,21,DLD,5,right,0.0,True,duration,6,0.9,3.125843199,6.14915204,1,implicit,True
P105,22,DLD,5,left,1.0,True,duration,3,0.54,1.893968967,5.808894873,1,implicit,True
P105,23,DLD,5,right,1.0,True,duration,5,0.78,2.715218455,4.829449177,1,implicit,True
P105,24,DLD,5,left,1.0,True,duration,2,0.42,1.483344223,5.279409885,1,implicit,True
P105,25,DLD,5,right,0.0,True,duration,4,0.66,2.304593711,5.619098902,1,implicit,True
P105,26,DLD,5,left,1.0,True,duration,1,0.3,1.07271948,5.578051806,1,implicit,True
P105,27,DLD,5,right,1.0,True,duration,6,0.9,3.125843199,5.578500986,1,implicit,True
P105,28,DLD,5,right,0.0,True,duration,5,0.78,2.715218455,4.560791969,1,implicit,True
P105,29,DLD,5,left,1.0,True,duration,2,0.42,1.483344223,4.593357086,1,implicit,True
P105,30,DLD,5,left,0.0,True,duration,3,0.54,1.893968967,4.867848873,1,implicit,True
P105,31,DLD,5,right,1.0,True,duration,6,0.9,3.125843199,5.377049923,1,implicit,True
P105,32,DLD,5,left,1.0,True,duration,3,0.54,1.893968967,4.996291876,1,implicit,True
P105,33,DLD,5,right,1.0,True,duration,4,0.66,2.304593711,4.779782057,1,implicit,True
P105,34,DLD,5,left,1.0,True,duration,2,0.42,1.483344223,3.297162056,1,implicit,True
P105,35,DLD,5,left,0.0,True,duration,1,0.3,1.07271948,4.216799021,1,implicit,True
P105,36,DLD,5,right,1.0,True,duration,5,0.78,2.715218455,3.294270039,1,implicit,True
P105,37,DLD,5,left,1.0,True,duration,2,0.42,1.483344223,3.313656092,1,implicit,True
P105,38,DLD,5,right,1.0,True,duration,5,0.78,2.715218455,1.929730892,1,implicit,True
P105,39,DLD,5,left,1.0,True,duration,3,0.54,1.893968967,4.61340785,1,implicit,True
P105,40,DLD,5,left,0.0,True,duration,1,0.3,1.07271948,4.552976847,1,implicit,True
P105,41,DLD,5,right,1.0,True,duration,6,0.9,3.125843199,4.793905973,1,implicit,True
P105,42,DLD,5,right,0.0,True,duration,4,0.66,2.304593711,3.952740908,0,implicit,True
P105,43,DLD,5,right,0.0,True,duration,6,0.9,3.125843199,4.396030903,1,implicit,True
P105,44,DLD,5,left,1.0,True,duration,3,0.54,1.893968967,4.652453899,1,implicit,True
P105,45,DLD,5,left,0.0,True,duration,2,0.42,1.483344223,5.315798998,1,implicit,True
P105,46,DLD,5,right,1.0,True,duration,4,0.66,2.304593711,5.279773951,1,implicit,True
P105,47,DLD,5,left,1.0,True,duration,1,0.3,1.07271948,5.710004091,1,implicit,True
P105,48,DLD,5,right,1.0,False,duration,5,0.78,2.715218455,17.04238582,1,implicit,False
P106,1,DLD,6,right,0.0,False,duration,6,0.9,3.125843199,11.66577411,1,implicit,False
P106,2,DLD,6,left,1.0,False,duration,3,0.54,1.893968967,8.877534866,1,implicit,True
P106,3,DLD,6,left,0.0,False,duration,2,0.42,1.483344223,7.785328865,1,implicit,True
P106,4,DLD,6,right,1.0,False,duration,4,0.66,2.304593711,8.324164867,1,implicit,True
P106,5,DLD,6,left,1.0,True,duration,1,0.3,1.07271948,5.695546865,1,implicit,True
P106,6,DLD,6,right,1.0,True,duration,5,0.78,2.715218455,4.611541033,1,implicit,True
P106,7,DLD,6,left,1.0,True,duration,1,0.3,1.07271948,5.71230793,1,implicit,True
P106,8,DLD,6,right,1.0,False,duration,4,0.66,2.304593711,11.19208097,1,implicit,False
P106,9,DLD,6,right,0.0,False,duration,5,0.78,2.715218455,8.94888711,1,implicit,True
P106,10,DLD,6,left,1.0,True,duration,3,0.54,1.893968967,5.926413059,1,implicit,True
P106,11,DLD,6,left,0.0,True,duration,2,0.42,1.483344223,4.284503222,1,implicit,True
P106,12,DLD,6,right,1.0,True,duration,6,0.9,3.125843199,4.630922079,1,implicit,True
P106,13,DLD,6,right,0.0,True,duration,4,0.66,2.304593711,3.790090799,1,implicit,True
P106,14,DLD,6,left,1.0,True,duration,1,0.3,1.07271948,3.843191147,1,implicit,True
P106,15,DLD,6,right,1.0,True,duration,6,0.9,3.125843199,5.163253784,1,implicit,True
P106,16,DLD,6,right,0.0,True,duration,5,0.78,2.715218455,5.031139135,1,implicit,True
P106,17,DLD,6,left,1.0,True,duration,2,0.42,1.483344223,5.311228991,1,implicit,True
P106,18,DLD,6,left,0.0,True,duration,3,0.54,1.893968967,3.301803112,1,implicit,True
P106,19,DLD,6,left,0.0,True,duration,3,0.54,1.893968967,3.78707695,1,implicit,True
P106,20,DLD,6,right,1.0,True,duration,6,0.9,3.125843199,4.670192957,1,implicit,True
P106,21,DLD,6,left,1.0,True,duration,2,0.42,1.483344223,6.079469919,1,implicit,True
P106,22,DLD,6,right,1.0,True,duration,5,0.78,2.715218455,4.458287001,1,implicit,True
P106,23,DLD,6,right,0.0,True,duration,4,0.66,2.304593711,3.351322889,1,implicit,True
P106,24,DLD,6,left,1.0,True,duration,1,0.3,1.07271948,4.040013075,1,implicit,True
P106,25,DLD,6,left,0.0,True,duration,1,0.3,1.07271948,3.702987909,1,implicit,True
P106,26,DLD,6,right,1.0,True,duration,4,0.66,2.304593711,4.266102791,1,implicit,True
P106,27,DLD,6,right,0.0,True,duration,6,0.9,3.125843199,4.083012104,1,implicit,True
P106,28,DLD,6,left,1.0,True,duration,3,0.54,1.893968967,6.325289965,1,implicit,True
P106,29,DLD,6,right,1.0,True,duration,5,0.78,2.715218455,3.345187902,1,implicit,True
P106,30,DLD,6,left,1.0,True,duration,2,0.42,1.483344223,3.281292915,1,implicit,True
P106,31,DLD,6,right,1.0,True,duration,5,0.78,2.715218455,2.721169949,1,implicit,True
P106,32,DLD,6,left,1.0,True,duration,2,0.42,1.483344223,2.990604877,1,implicit,True
P106,33,DLD,6,left,0.0,True,duration,1,0.3,1.07271948,3.355597019,1,implicit,True
P106,34,DLD,6,right,1.0,True,duration,4,0.66,2.304593711,2.82177186,1,implicit,True
P106,35,DLD,6,left,1.0,True,duration,3,0.54,1.893968967,3.196441889,1,implicit,True
P106,36,DLD,6,right,1.0,True,duration,6,0.9,3.125843199,2.776637077,1,implicit,True
P106,37,DLD,6,left,1.0,True,duration,2,0.42,1.483344223,3.680516958,1,implicit,True
P106,38,DLD,6,right,1.0,True,duration,5,0.78,2.715218455,2.679396153,1,implicit,True
P106,39,DLD,6,left,1.0,True,duration,3,0.54,1.893968967,2.895817041,1,implicit,True
P106,40,DLD,6,left,0.0,True,duration,1,0.3,1.07271948,3.403958082,1,implicit,True
P106,41,DLD,6,right,1.0,True,duration,6,0.9,3.125843199,2.8245821,1,implicit,True
P106,42,DLD,6,right,0.0,True,duration,4,0.66,2.304593711,2.848712921,1,implicit,True
P106,43,DLD,6,right,0.0,True,duration,6,0.9,3.125843199,2.686270952,1,implicit,True
P106,44,DLD,6,left,1.0,True,duration,3,0.54,1.893968967,3.021287918,1,implicit,True
P106,45,DLD,6,right,1.0,True,duration,4,0.66,2.304593711,2.994376898,1,implicit,True
P106,46,DLD,6,left,1.0,True,duration,2,0.42,1.483344223,3.730612993,1,implicit,True
P106,47,DLD,6,left,0.0,True,duration,1,0.3,1.07271948,5.63323617,1,implicit,True
P106,48,DLD,6,right,1.0,True,duration,5,0.78,2.715218455,5.343707085,1,implicit,True
P107,1,DLD,2,left,0.0,False,duration,2,0.42,1.483344223,8.188143015,1,implicit,True
P107,2,DLD,2,right,1.0,False,duration,5,0.78,2.715218455,8.491553068,1,implicit,True
P107,3,DLD,2,left,1.0,False,duration,3,0.54,1.893968967,5.362231016,1,implicit,True
P107,4,DLD,2,left,0.0,False,duration,1,0.3,1.07271948,5.58292985,1,implicit,True
P107,5,DLD,2,right,1.0,False,duration,6,0.9,3.125843199,5.762547016,1,implicit,True
P107,6,DLD,2,right,0.0,False,duration,4,0.66,2.304593711,6.025454998,1,implicit,True
P107,7,DLD,2,right,0.0,False,duration,6,0.9,3.125843199,7.033561945,1,implicit,True
P107,8,DLD,2,left,1.0,True,duration,3,0.54,1.893968967,4.960343122,1,implicit,True
P107,9,DLD,2,left,0.0,True,duration,2,0.42,1.483344223,4.299831867,1,implicit,True
P107,10,DLD,2,right,1.0,True,duration,4,0.66,2.304593711,4.176504135,1,implicit,True
P107,11,DLD,2,left,1.0,True,duration,1,0.3,1.07271948,4.38045001,1,implicit,True
P107,12,DLD,2,right,1.0,True,duration,5,0.78,2.715218455,4.044954062,1,implicit,True
P107,13,DLD,2,left,1.0,True,duration,1,0.3,1.07271948,3.061813116,1,implicit,True
P107,14,DLD,2,right,1.0,True,duration,4,0.66,2.304593711,3.188139915,1,implicit,True
P107,15,DLD,2,right,0.0,True,duration,6,0.9,3.125843199,2.668720007,1,implicit,True
P107,16,DLD,2,left,1.0,True,duration,3,0.54,1.893968967,3.243072987,1,implicit,True
P107,17,DLD,2,right,1.0,True,duration,5,0.78,2.715218455,2.930387974,1,implicit,True
P107,18,DLD,2,left,1.0,True,duration,2,0.42,1.483344223,2.692713976,1,implicit,True
P107,19,DLD,2,left,0.0,True,duration,3,0.54,1.893968967,4.018409014,1,implicit,True
P107,20,DLD,2,right,1.0,True,duration,6,0.9,3.125843199,3.229379177,1,implicit,True
P107,21,DLD,2,left,1.0,True,duration,2,0.42,1.483344223,2.924751997,1,implicit,True
P107,22,DLD,2,right,1.0,True,duration,5,0.78,2.715218455,3.244259119,1,implicit,True
P107,23,DLD,2,right,0.0,True,duration,4,0.66,2.304593711,3.550534964,1,implicit,True
P107,24,DLD,2,left,1.0,True,duration,1,0.3,1.07271948,3.074894905,1,implicit,True
