participant,trial,response_time,group,trialOrder,correct,side,changeTrial,RTwoOutlier,phase
P27,1,2.188951969,DLD,1,0,left,0.0,2.188951969,implicit
P27,2,2.044434071,DLD,1,0,right,1.0,2.044434071,implicit
P27,3,1.868333101,DLD,1,1,right,0.0,1.868333101,implicit
P27,4,2.811274052,DLD,1,1,left,1.0,2.811274052,implicit
P27,5,3.06602788,DLD,1,1,left,0.0,3.06602788,implicit
P27,6,5.176866055,DLD,1,1,right,1.0,,implicit
P27,7,3.119224072,DLD,1,1,right,0.0,3.119224072,implicit
P27,8,2.607019901,DLD,1,1,left,1.0,2.607019901,implicit
P27,9,2.786305189,DLD,1,1,left,0.0,2.786305189,implicit
P27,10,2.378491879,DLD,1,1,right,1.0,2.378491879,implicit
P27,11,2.542459011,DLD,1,1,left,1.0,2.542459011,implicit
P27,12,2.014678001,DLD,1,1,right,1.0,2.014678001,implicit
P27,13,0.5671350956,DLD,1,1,right,0.0,,implicit
P27,14,2.558873892,DLD,1,1,left,1.0,2.558873892,implicit
P27,15,1.431853056,DLD,1,1,right,1.0,1.431853056,implicit
P27,16,2.350636005,DLD,1,1,right,0.0,2.350636005,implicit
P27,17,2.442496061,DLD,1,1,left,1.0,2.442496061,implicit
P27,18,2.168702126,DLD,1,0,left,0.0,2.168702126,implicit
P27,19,2.028034925,DLD,1,0,right,1.0,2.028034925,implicit
P27,20,2.913333893,DLD,1,1,left,1.0,2.913333893,implicit
P27,21,2.119313955,DLD,1,1,right,1.0,2.119313955,implicit
P27,22,2.512051106,DLD,1,1,left,1.0,2.512051106,implicit
P27,23,2.718496084,DLD,1,1,left,0.0,2.718496084,implicit
P27,24,2.296041012,DLD,1,1,right,1.0,2.296041012,implicit
P27,25,2.004428864,DLD,1,0,left,0.0,2.004428864,implicit
P27,26,2.389282942,DLD,1,1,right,1.0,2.389282942,implicit
P27,27,2.52877593,DLD,1,1,left,1.0,2.52877593,implicit
P27,28,2.968869925,DLD,1,1,left,0.0,2.968869925,implicit
P27,29,2.129602909,DLD,1,1,right,1.0,2.129602909,implicit
P27,30,2.650970936,DLD,1,1,right,0.0,2.650970936,implicit
P27,31,3.033080101,DLD,1,1,right,0.0,3.033080101,implicit
P27,32,2.593960047,DLD,1,1,left,1.0,2.593960047,implicit
P27,33,2.720290899,DLD,1,1,left,0.0,2.720290899,implicit
P27,34,2.560121059,DLD,1,1,right,1.0,2.560121059,implicit
P27,35,2.610692024,DLD,1,1,left,1.0,2.610692024,implicit
P27,36,2.514280796,DLD,1,1,right,1.0,2.514280796,implicit
P27,37,2.461099863,DLD,1,1,left,1.0,2.461099863,implicit
P27,38,2.84088707,DLD,1,1,right,1.0,2.84088707,implicit
P27,39,2.548088074,DLD,1,1,right,0.0,2.548088074,implicit
P27,40,3.012194872,DLD,1,1,left,1.0,3.012194872,implicit
P27,41,4.757575989,DLD,1,1,right,1.0,,implicit
P27,42,2.445764065,DLD,1,1,left,1.0,2.445764065,implicit
P27,43,2.787024975,DLD,1,1,left,0.0,2.787024975,implicit
P27,44,2.240979195,DLD,1,1,right,1.0,2.240979195,implicit
P27,45,2.514655113,DLD,1,1,left,1.0,2.514655113,implicit
P27,46,2.57850194,DLD,1,1,right,1.0,2.57850194,implicit
P27,47,2.035357952,DLD,1,1,right,0.0,2.035357952,implicit
P27,48,2.292121172,DLD,1,1,left,1.0,2.292121172,implicit
P30,1,3.168664217,TLD,1,1,left,0.0,3.168664217,implicit
P30,2,2.079955101,TLD,1,1,right,1.0,2.079955101,implicit
P30,3,2.235424995,TLD,1,1,right,0.0,2.235424995,implicit
P30,4,2.761380196,TLD,1,1,left,1.0,2.761380196,implicit
P30,5,2.663857937,TLD,1,1,left,0.0,2.663857937,implicit
P30,6,2.379137993,TLD,1,1,right,1.0,2.379137993,implicit
P30,7,2.248915911,TLD,1,1,right,0.0,2.248915911,implicit
P30,8,2.578914881,TLD,1,1,left,1.0,2.578914881,implicit
P30,9,3.066041946,TLD,1,1,left,0.0,3.066041946,implicit
P30,10,2.178924084,TLD,1,1,right,1.0,2.178924084,implicit
P30,11,2.328343153,TLD,1,1,left,1.0,2.328343153,implicit
P30,12,2.081224918,TLD,1,1,right,1.0,2.081224918,implicit
P30,13,2.169044971,TLD,1,1,right,0.0,2.169044971,implicit
P30,14,2.694313049,TLD,1,1,left,1.0,2.694313049,implicit
P30,15,2.427786827,TLD,1,1,right,1.0,2.427786827,implicit
P30,16,2.302696943,TLD,1,1,right,0.0,2.302696943,implicit
P30,17,3.239076138,TLD,1,1,left,1.0,3.239076138,implicit
P30,18,1.269550085,TLD,1,1,left,0.0,1.269550085,implicit
P30,19,2.41121316,TLD,1,1,right,1.0,2.41121316,implicit
P30,20,2.647567034,TLD,1,1,left,1.0,2.647567034,implicit
P30,21,2.25957799,TLD,1,1,right,1.0,2.25957799,implicit
P30,22,2.844856024,TLD,1,1,left,1.0,2.844856024,implicit
P30,23,2.571698904,TLD,1,0,left,0.0,2.571698904,implicit
P30,24,2.62409997,TLD,1,1,right,1.0,2.62409997,implicit
P30,25,2.585350037,TLD,1,1,left,0.0,2.585350037,implicit
P30,26,1.964307785,TLD,1,1,right,1.0,1.964307785,implicit
P30,27,2.192814827,TLD,1,1,left,1.0,2.192814827,implicit
P30,28,1.08693099,TLD,1,0,left,0.0,1.08693099,implicit
P30,29,2.243709803,TLD,1,1,right,1.0,2.243709803,implicit
P30,30,1.067956924,TLD,1,0,right,0.0,1.067956924,implicit
P30,31,2.286437035,TLD,1,1,right,0.0,2.286437035,implicit
P30,32,2.575420141,TLD,1,1,left,1.0,2.575420141,implicit
P30,33,2.533801794,TLD,1,1,left,0.0,2.533801794,implicit
P30,34,2.278382063,TLD,1,1,right,1.0,2.278382063,implicit
P30,35,2.648170948,TLD,1,1,left,1.0,2.648170948,implicit
P30,36,2.30248189,TLD,1,1,right,1.0,2.30248189,implicit
P30,37,2.29482317,TLD,1,1,left,1.0,2.29482317,implicit
P30,38,2.543582916,TLD,1,1,right,1.0,2.543582916,implicit
P30,39,2.502627134,TLD,1,1,right,0.0,2.502627134,implicit
P30,40,3.108629942,TLD,1,1,left,1.0,3.108629942,implicit
P30,41,2.163854122,TLD,1,1,right,1.0,2.163854122,implicit
P30,42,0.8293449879,TLD,1,1,left,1.0,0.8293449879,implicit
P30,43,3.069148064,TLD,1,1,left,0.0,3.069148064,implicit
P30,44,2.362790108,TLD,1,1,right,1.0,2.362790108,implicit
P30,45,2.728379965,TLD,1,1,left,1.0,2.728379965,implicit
P30,46,2.196353912,TLD,1,1,right,1.0,2.196353912,implicit
P30,47,2.434234142,TLD,1,1,right,0.0,2.434234142,implicit
P30,48,3.195119858,TLD,1,1,left,1.0,3.195119858,implicit
P33,1,3.067497969,TLD,1,1,left,0.0,3.067497969,implicit
P33,2,2.270562172,TLD,1,1,right,1.0,2.270562172,implicit
P33,3,2.683135033,TLD,1,1,right,0.0,2.683135033,implicit
P33,4,2.562393904,TLD,1,1,left,1.0,2.562393904,implicit
P33,5,3.046265125,TLD,1,1,left,0.0,3.046265125,implicit
P33,6,2.812283039,TLD,1,1,right,1.0,2.812283039,implicit
P33,7,2.149168015,TLD,1,1,right,0.0,2.149168015,implicit
P33,8,3.494579077,TLD,1,1,left,1.0,3.494579077,implicit
P33,9,3.551725864,TLD,1,1,left,0.0,3.551725864,implicit
P33,10,2.794859886,TLD,1,1,right,1.0,2.794859886,implicit
P33,11,2.963539124,TLD,1,1,left,1.0,2.963539124,implicit
P33,12,2.556634903,TLD,1,1,right,1.0,2.556634903,implicit
P33,13,0.5181689262,TLD,1,1,right,0.0,0.5181689262,implicit
P33,14,3.959549904,TLD,1,1,left,1.0,3.959549904,implicit
P33,15,2.796957016,TLD,1,1,right,1.0,2.796957016,implicit
P33,16,2.984680176,TLD,1,1,right,0.0,2.984680176,implicit
P33,17,3.109355927,TLD,1,1,left,1.0,3.109355927,implicit
P33,18,3.519279003,TLD,1,1,left,0.0,3.519279003,implicit
P33,19,2.725165129,TLD,1,1,right,1.0,2.725165129,implicit
P33,20,6.707455873,TLD,1,1,left,1.0,,implicit
P33,21,2.780699015,TLD,1,1,right,1.0,2.780699015,implicit
P33,22,3.708672047,TLD,1,1,left,1.0,3.708672047,implicit
P33,23,6.701179981,TLD,1,1,left,0.0,,implicit
P33,24,2.491440058,TLD,1,1,right,1.0,2.491440058,implicit
P33,25,3.080764771,TLD,1,1,left,0.0,3.080764771,implicit
P33,26,0.5128259659,TLD,1,0,right,1.0,0.5128259659,implicit
P33,27,3.014818907,TLD,1,1,left,1.0,3.014818907,implicit
P33,28,3.065523148,TLD,1,1,left,0.0,3.065523148,implicit
P33,29,2.860368967,TLD,1,1,right,1.0,2.860368967,implicit
P33,30,2.516289949,TLD,1,1,right,0.0,2.516289949,implicit
P33,31,3.067196131,TLD,1,1,right,0.0,3.067196131,implicit
P33,32,2.941476822,TLD,1,1,left,1.0,2.941476822,implicit
P33,33,0.5193891525,TLD,1,1,left,0.0,0.5193891525,implicit
P33,34,3.410273075,TLD,1,1,right,1.0,3.410273075,implicit
P33,35,2.632046938,TLD,1,1,left,1.0,2.632046938,implicit
P33,36,2.371567965,TLD,1,1,right,1.0,2.371567965,implicit
P33,37,2.363796949,TLD,1,1,left,1.0,2.363796949,implicit
P33,38,3.260910034,TLD,1,1,right,1.0,3.260910034,implicit
P33,39,2.533386946,TLD,1,1,right,0.0,2.533386946,implicit
P33,40,3.01018095,TLD,1,1,left,1.0,3.01018095,implicit
P33,41,2.459554911,TLD,1,1,right,1.0,2.459554911,implicit
P33,42,2.598879099,TLD,1,1,left,1.0,2.598879099,implicit
P33,43,3.162146091,TLD,1,1,left,0.0,3.162146091,implicit
P33,44,2.345062971,TLD,1,1,right,1.0,2.345062971,implicit
P33,45,2.759523153,TLD,1,1,left,1.0,2.759523153,implicit
P33,46,1.361096144,TLD,1,0,right,1.0,1.361096144,implicit
P33,47,2.467002869,TLD,1,1,right,0.0,2.467002869,implicit
P33,48,3.35701704,TLD,1,1,left,1.0,3.35701704,implicit
P37,1,1.066798925,TLD,3,1,left,0.0,,implicit
P37,2,1.752730846,TLD,3,0,right,1.0,1.752730846,implicit
P37,3,0.7297430038,TLD,3,1,left,1.0,,implicit
P37,4,0.5118288994,TLD,3,0,right,1.0,,implicit
P37,5,2.263468027,TLD,3,1,right,0.0,2.263468027,implicit
P37,6,2.276830912,TLD,3,1,left,1.0,2.276830912,implicit
P37,7,2.270848989,TLD,3,1,left,0.0,2.270848989,implicit
P37,8,2.526389122,TLD,3,1,right,1.0,2.526389122,implicit
P37,9,2.697201967,TLD,3,1,left,1.0,2.697201967,implicit
P37,10,1.76879406,TLD,3,0,left,0.0,1.76879406,implicit
P37,11,0.8291749954,TLD,3,1,right,1.0,,implicit
P37,12,0.5177760124,TLD,3,1,right,0.0,,implicit
P37,13,2.587496996,TLD,3,1,right,0.0,2.587496996,implicit
P37,14,1.855648994,TLD,3,1,left,1.0,1.855648994,implicit
P37,15,2.752075911,TLD,3,1,left,0.0,2.752075911,implicit
P37,16,2.360399961,TLD,3,1,right,1.0,2.360399961,implicit
P37,17,2.54834199,TLD,3,1,left,1.0,2.54834199,implicit
P37,18,2.508332968,TLD,3,1,right,1.0,2.508332968,implicit
P37,19,2.615767956,TLD,3,1,right,0.0,2.615767956,implicit
P37,20,2.795542955,TLD,3,0,left,1.0,2.795542955,implicit
P37,21,2.783097982,TLD,3,1,left,0.0,2.783097982,implicit
P37,22,2.56443119,TLD,3,1,right,1.0,2.56443119,implicit
P37,23,2.779644012,TLD,3,1,left,1.0,2.779644012,implicit
P37,24,2.547865152,TLD,3,1,right,1.0,2.547865152,implicit
P37,25,2.271022081,TLD,3,1,right,0.0,2.271022081,implicit
P37,26,2.658674002,TLD,3,1,left,1.0,2.658674002,implicit
P37,27,2.228564024,TLD,3,1,right,1.0,2.228564024,implicit
P37,28,2.579581022,TLD,3,1,left,1.0,2.579581022,implicit
P37,29,1.33240509,TLD,3,0,left,0.0,1.33240509,implicit
P37,30,2.260782003,TLD,3,1,right,1.0,2.260782003,implicit
P37,31,2.578342915,TLD,3,1,left,1.0,2.578342915,implicit
P37,32,2.064057112,TLD,3,1,right,1.0,2.064057112,implicit
P37,33,2.383753777,TLD,3,1,right,0.0,2.383753777,implicit
P37,34,2.557632923,TLD,3,1,left,1.0,2.557632923,implicit
P37,35,2.56945014,TLD,3,1,left,0.0,2.56945014,implicit
P37,36,2.394768953,TLD,3,1,right,1.0,2.394768953,implicit
P37,37,2.61473608,TLD,3,1,left,1.0,2.61473608,implicit
P37,38,2.53819108,TLD,3,1,right,1.0,2.53819108,implicit
P37,39,2.082919121,TLD,3,0,right,0.0,2.082919121,implicit
P37,40,2.793061018,TLD,3,1,left,1.0,2.793061018,implicit
P37,41,2.047642946,TLD,3,1,right,1.0,2.047642946,implicit
P37,42,2.421249151,TLD,3,1,left,1.0,2.421249151,implicit
P37,43,2.213670969,TLD,3,1,right,1.0,2.213670969,implicit
P37,44,2.445108891,TLD,3,1,left,1.0,2.445108891,implicit
P37,45,2.063259125,TLD,3,1,right,1.0,2.063259125,implicit
P37,46,1.434899807,TLD,3,0,right,0.0,1.434899807,implicit
P37,47,2.608231783,TLD,3,1,left,1.0,2.608231783,implicit
P37,48,2.669149876,TLD,3,1,left,0.0,2.669149876,implicit
P39,1,1.395913839,TLD,2,1,left,0.0,1.395913839,implicit
P39,2,3.812877178,TLD,2,1,right,1.0,3.812877178,implicit
P39,3,4.076948881,TLD,2,1,left,1.0,4.076948881,implicit
P39,4,3.068012953,TLD,2,1,left,0.0,3.068012953,implicit
P39,5,3.660546064,TLD,2,1,right,1.0,3.660546064,implicit
P39,6,2.795032024,TLD,2,1,right,0.0,2.795032024,implicit
P39,7,2.731036186,TLD,2,1,right,0.0,2.731036186,implicit
P39,8,3.194370985,TLD,2,1,left,1.0,3.194370985,implicit
P39,9,2.317815065,TLD,2,1,left,0.0,2.317815065,implicit
P39,10,2.444582939,TLD,2,1,right,1.0,2.444582939,implicit
P39,11,2.562735081,TLD,2,1,left,1.0,2.562735081,implicit
P39,12,2.863554001,TLD,2,1,right,1.0,2.863554001,implicit
P39,13,2.328476191,TLD,2,1,left,1.0,2.328476191,implicit
P39,14,2.079566956,TLD,2,1,right,1.0,2.079566956,implicit
P39,15,1.718199968,TLD,2,0,right,0.0,1.718199968,implicit
P39,16,3.161022186,TLD,2,0,left,1.0,3.161022186,implicit
P39,17,2.657562971,TLD,2,1,right,1.0,2.657562971,implicit
P39,18,1.363979816,TLD,2,1,left,1.0,1.363979816,implicit
P39,19,2.386454105,TLD,2,1,left,0.0,2.386454105,implicit
P39,20,2.227216005,TLD,2,1,right,1.0,2.227216005,implicit
P39,21,2.612540007,TLD,2,1,left,1.0,2.612540007,implicit
P39,22,2.140540123,TLD,2,1,right,1.0,2.140540123,implicit
P39,23,2.901346207,TLD,2,1,right,0.0,2.901346207,implicit
P39,24,2.541664839,TLD,2,1,left,1.0,2.541664839,implicit
P39,25,1.251623154,TLD,2,0,right,0.0,1.251623154,implicit
P39,26,2.362802029,TLD,2,1,left,1.0,2.362802029,implicit
P39,27,2.230174065,TLD,2,1,right,1.0,2.230174065,implicit
P39,28,1.646357059,TLD,2,0,right,0.0,1.646357059,implicit
P39,29,2.377976894,TLD,2,1,left,1.0,2.377976894,implicit
P39,30,2.435750008,TLD,2,0,left,0.0,2.435750008,implicit
P39,31,2.696511984,TLD,2,1,right,1.0,2.696511984,implicit
P39,32,2.477674961,TLD,2,1,left,1.0,2.477674961,implicit
P39,33,2.062813044,TLD,2,1,right,1.0,2.062813044,implicit
P39,34,2.478492022,TLD,2,1,left,1.0,2.478492022,implicit
P39,35,3.337483883,TLD,2,1,left,0.0,3.337483883,implicit
P39,36,2.075937986,TLD,2,1,right,1.0,2.075937986,implicit
P39,37,2.967925072,TLD,2,1,right,0.0,2.967925072,implicit
P39,38,2.47567606,TLD,2,1,left,1.0,2.47567606,implicit
P39,39,3.171633959,TLD,2,1,left,0.0,3.171633959,implicit
P39,40,2.275609016,TLD,2,1,right,1.0,2.275609016,implicit
P39,41,3.162260056,TLD,2,1,left,1.0,3.162260056,implicit
P39,42,2.630245924,TLD,2,1,right,1.0,2.630245924,implicit
P39,43,2.313528061,TLD,2,1,left,1.0,2.313528061,implicit
P39,44,2.092746973,TLD,2,1,right,1.0,2.092746973,implicit
P39,45,1.018311977,TLD,2,0,right,0.0,1.018311977,implicit
P39,46,0.5266959667,TLD,2,0,left,1.0,0.5266959667,implicit
P39,47,4.103808165,TLD,2,1,left,0.0,4.103808165,implicit
P39,48,6.893136024,TLD,2,1,right,1.0,,implicit
P41,1,3.848069906,TLD,4,1,right,0.0,3.848069906,implicit
P41,2,5.678553104,TLD,4,1,left,1.0,,implicit
P41,3,3.002475977,TLD,4,1,right,1.0,3.002475977,implicit
P41,4,2.817389011,TLD,4,1,right,0.0,2.817389011,implicit
P41,5,3.458930969,TLD,4,1,left,1.0,3.458930969,implicit
P41,6,2.953369141,TLD,4,1,left,0.0,2.953369141,implicit
P41,7,3.024557114,TLD,4,1,right,1.0,3.024557114,implicit
P41,8,3.027854204,TLD,4,1,left,1.0,3.027854204,implicit
P41,9,2.697274923,TLD,4,1,right,1.0,2.697274923,implicit
P41,10,2.890506983,TLD,4,1,left,1.0,2.890506983,implicit
P41,11,3.200793982,TLD,4,1,left,0.0,3.200793982,implicit
P41,12,2.478085995,TLD,4,1,right,1.0,2.478085995,implicit
P41,13,2.320325851,TLD,4,1,right,0.0,2.320325851,implicit
P41,14,2.954225063,TLD,4,1,left,1.0,2.954225063,implicit
P41,15,2.935193062,TLD,4,1,left,0.0,2.935193062,implicit
P41,16,2.244896173,TLD,4,1,right,1.0,2.244896173,implicit
P41,17,2.843142033,TLD,4,1,left,1.0,2.843142033,implicit
P41,18,2.411402941,TLD,4,1,right,1.0,2.411402941,implicit
P41,19,2.612077951,TLD,4,1,left,1.0,2.612077951,implicit
P41,20,2.33129096,TLD,4,1,right,1.0,2.33129096,implicit
P41,21,2.491949081,TLD,4,1,left,1.0,2.491949081,implicit
P41,22,2.683736086,TLD,4,1,left,0.0,2.683736086,implicit
P41,23,2.560842991,TLD,4,1,right,1.0,2.560842991,implicit
P41,24,2.296930075,TLD,4,0,right,0.0,2.296930075,implicit
P41,25,2.798950911,TLD,4,1,left,0.0,2.798950911,implicit
P41,26,2.393505096,TLD,4,1,right,1.0,2.393505096,implicit
P41,27,2.511707067,TLD,4,1,left,1.0,2.511707067,implicit
P41,28,2.396821976,TLD,4,1,right,1.0,2.396821976,implicit
P41,29,2.849720001,TLD,4,1,right,0.0,2.849720001,implicit
P41,30,2.643081903,TLD,4,1,left,1.0,2.643081903,implicit
P41,31,2.55352807,TLD,4,1,left,0.0,2.55352807,implicit
P41,32,2.479299068,TLD,4,1,right,1.0,2.479299068,implicit
P41,33,2.548289061,TLD,4,1,right,0.0,2.548289061,implicit
P41,34,2.51026082,TLD,4,1,left,1.0,2.51026082,implicit
P41,35,2.711274147,TLD,4,1,right,1.0,2.711274147,implicit
P41,36,3.049158096,TLD,4,1,left,1.0,3.049158096,implicit
P41,37,2.519566059,TLD,4,1,right,1.0,2.519566059,implicit
P41,38,2.362438917,TLD,4,1,left,1.0,2.362438917,implicit
P41,39,2.854048967,TLD,4,1,left,0.0,2.854048967,implicit
P41,40,0.5231161118,TLD,4,0,right,1.0,,implicit
P41,41,2.910390139,TLD,4,1,left,1.0,2.910390139,implicit
P41,42,2.430340052,TLD,4,1,right,1.0,2.430340052,implicit
P41,43,2.712352991,TLD,4,1,left,1.0,2.712352991,implicit
P41,44,2.425686121,TLD,4,1,right,1.0,2.425686121,implicit
P41,45,2.658519983,TLD,4,1,right,0.0,2.658519983,implicit
P41,46,2.594084024,TLD,4,1,left,1.0,2.594084024,implicit
P41,47,2.802362919,TLD,4,1,left,0.0,2.802362919,implicit
P41,48,2.37846899,TLD,4,1,right,1.0,2.37846899,implicit
P42,1,2.774742842,TLD,5,1,right,0.0,2.774742842,implicit
P42,2,3.011631012,TLD,5,1,left,1.0,3.011631012,implicit
P42,3,3.319103003,TLD,5,1,left,0.0,3.319103003,implicit
P42,4,3.453172922,TLD,5,1,right,1.0,3.453172922,implicit
P42,5,2.824463844,TLD,5,1,left,1.0,2.824463844,implicit
P42,6,3.047384024,TLD,5,1,right,1.0,3.047384024,implicit
P42,7,3.175374031,TLD,5,1,left,1.0,3.175374031,implicit
P42,8,3.444476843,TLD,5,1,right,1.0,3.444476843,implicit
P42,9,3.33316803,TLD,5,1,right,0.0,3.33316803,implicit
P42,10,2.858062983,TLD,5,1,left,1.0,2.858062983,implicit
P42,11,3.218769073,TLD,5,1,left,0.0,3.218769073,implicit
P42,12,2.513159037,TLD,5,1,right,1.0,2.513159037,implicit
P42,13,2.825186968,TLD,5,1,left,1.0,2.825186968,implicit
P42,14,2.645327091,TLD,5,1,right,1.0,2.645327091,implicit
P42,15,2.762574911,TLD,5,1,left,1.0,2.762574911,implicit
P42,16,2.680688143,TLD,5,1,right,1.0,2.680688143,implicit
P42,17,2.89893508,TLD,5,1,right,0.0,2.89893508,implicit
P42,18,3.125592947,TLD,5,1,left,1.0,3.125592947,implicit
P42,19,3.537681818,TLD,5,1,left,0.0,3.537681818,implicit
P42,20,2.588563919,TLD,5,1,right,1.0,2.588563919,implicit
P42,21,2.667135954,TLD,5,1,right,0.0,2.667135954,implicit
P42,22,3.475997925,TLD,5,1,left,1.0,3.475997925,implicit
P42,23,2.731678009,TLD,5,1,right,1.0,2.731678009,implicit
P42,24,2.956979036,TLD,5,1,left,1.0,2.956979036,implicit
P42,25,0.5211930275,TLD,5,0,right,0.0,,implicit
P42,26,3.527637005,TLD,5,1,left,1.0,3.527637005,implicit
P42,27,2.425833941,TLD,5,1,right,1.0,2.425833941,implicit
P42,28,2.697978973,TLD,5,1,right,0.0,2.697978973,implicit
P42,29,2.709811926,TLD,5,1,left,1.0,2.709811926,implicit
P42,30,2.617673159,TLD,5,1,left,0.0,2.617673159,implicit
P42,31,2.795897007,TLD,5,1,right,1.0,2.795897007,implicit
P42,32,2.977053881,TLD,5,1,left,1.0,2.977053881,implicit
P42,33,2.544194937,TLD,5,1,right,1.0,2.544194937,implicit
P42,34,2.79769206,TLD,5,1,left,1.0,2.79769206,implicit
P42,35,2.969099998,TLD,5,1,left,0.0,2.969099998,implicit
P42,36,2.911811113,TLD,5,1,right,1.0,2.911811113,implicit
P42,37,3.110896826,TLD,5,1,left,1.0,3.110896826,implicit
P42,38,2.813616037,TLD,5,1,right,1.0,2.813616037,implicit
P42,39,2.675945044,TLD,5,1,left,1.0,2.675945044,implicit
P42,40,2.967370987,TLD,5,1,left,0.0,2.967370987,implicit
P42,41,2.545314074,TLD,5,1,right,1.0,2.545314074,implicit
P42,42,2.751772881,TLD,5,1,right,0.0,2.751772881,implicit
P42,43,3.07734704,TLD,5,1,right,0.0,3.07734704,implicit
P42,44,3.528124809,TLD,5,1,left,1.0,3.528124809,implicit
P42,45,2.969259977,TLD,5,1,left,0.0,2.969259977,implicit
P42,46,2.606823921,TLD,5,1,right,1.0,2.606823921,implicit
P42,47,3.178686142,TLD,5,1,left,1.0,3.178686142,implicit
P42,48,3.188310862,TLD,5,1,right,1.0,3.188310862,implicit
P44,1,1.545773983,TLD,6,0,right,0.0,1.545773983,implicit
P44,2,0.9924118519,TLD,6,1,left,1.0,0.9924118519,implicit
P44,3,1.304541826,TLD,6,1,left,0.0,1.304541826,implicit
P44,4,2.693041086,TLD,6,1,right,1.0,2.693041086,implicit
P44,5,3.713502884,TLD,6,1,left,1.0,3.713502884,implicit
P44,6,2.457385063,TLD,6,1,right,1.0,2.457385063,implicit
P44,7,1.814274073,TLD,6,1,left,1.0,1.814274073,implicit
P44,8,1.39646697,TLD,6,1,right,1.0,1.39646697,implicit
P44,9,1.001435041,TLD,6,1,right,0.0,1.001435041,implicit
P44,10,0.7945699692,TLD,6,0,left,1.0,0.7945699692,implicit
P44,11,1.087799072,TLD,6,0,left,0.0,1.087799072,implicit
P44,12,2.77895999,TLD,6,1,right,1.0,2.77895999,implicit
P44,13,2.248302937,TLD,6,1,right,0.0,2.248302937,implicit
P44,14,3.060064077,TLD,6,1,left,1.0,3.060064077,implicit
P44,15,2.380759001,TLD,6,1,right,1.0,2.380759001,implicit
P44,16,2.518344879,TLD,6,1,right,0.0,2.518344879,implicit
P44,17,2.594776869,TLD,6,1,left,1.0,2.594776869,implicit
P44,18,2.601505995,TLD,6,1,left,0.0,2.601505995,implicit
P44,19,2.770264149,TLD,6,1,left,0.0,2.770264149,implicit
P44,20,2.194499969,TLD,6,1,right,1.0,2.194499969,implicit
P44,21,1.998006105,TLD,6,0,left,1.0,1.998006105,implicit
P44,22,1.394412041,TLD,6,0,right,1.0,1.394412041,implicit
P44,23,2.334528923,TLD,6,1,right,0.0,2.334528923,implicit
P44,24,3.278931141,TLD,6,1,left,1.0,3.278931141,implicit
P44,25,5.086665869,TLD,6,1,left,0.0,5.086665869,implicit
P44,26,3.111741066,TLD,6,1,right,1.0,3.111741066,implicit
P44,27,2.585175037,TLD,6,1,right,0.0,2.585175037,implicit
P44,28,2.626030207,TLD,6,1,left,1.0,2.626030207,implicit
P44,29,2.642430067,TLD,6,1,right,1.0,2.642430067,implicit
P44,30,2.562777996,TLD,6,1,left,1.0,2.562777996,implicit
P44,31,2.397499084,TLD,6,1,right,1.0,2.397499084,implicit
P44,32,3.060880184,TLD,6,1,left,1.0,3.060880184,implicit
P44,33,2.985262156,TLD,6,1,left,0.0,2.985262156,implicit
P44,34,2.530063868,TLD,6,1,right,1.0,2.530063868,implicit
P44,35,2.663930893,TLD,6,1,left,1.0,2.663930893,implicit
P44,36,2.559135914,TLD,6,1,right,1.0,2.559135914,implicit
P44,37,3.028800964,TLD,6,1,left,1.0,3.028800964,implicit
P44,38,2.647554874,TLD,6,1,right,1.0,2.647554874,implicit
P44,39,2.876827955,TLD,6,1,left,1.0,2.876827955,implicit
P44,40,4.670340061,TLD,6,1,left,0.0,4.670340061,implicit
P44,41,2.478893042,TLD,6,1,right,1.0,2.478893042,implicit
P44,42,3.36395812,TLD,6,1,right,0.0,3.36395812,implicit
P44,43,3.252085924,TLD,6,1,right,0.0,3.252085924,implicit
P44,44,2.643092871,TLD,6,1,left,1.0,2.643092871,implicit
P44,45,0.514332056,TLD,6,0,right,1.0,0.514332056,implicit
P44,46,3.227082968,TLD,6,1,left,1.0,3.227082968,implicit
P44,47,4.218476057,TLD,6,1,left,0.0,4.218476057,implicit
P44,48,2.76345396,TLD,6,1,right,1.0,2.76345396,implicit
P45,1,2.029699087,TLD,3,1,left,0.0,2.029699087,implicit
P45,2,3.627876997,TLD,3,1,right,1.0,3.627876997,implicit
P45,3,3.163201094,TLD,3,1,left,1.0,3.163201094,implicit
P45,4,2.360512018,TLD,3,1,right,1.0,2.360512018,implicit
P45,5,2.470210075,TLD,3,1,right,0.0,2.470210075,implicit
P45,6,2.893053055,TLD,3,1,left,1.0,2.893053055,implicit
P45,7,2.703367949,TLD,3,1,left,0.0,2.703367949,implicit
P45,8,2.160341024,TLD,3,1,right,1.0,2.160341024,implicit
P45,9,2.563928127,TLD,3,1,left,1.0,2.563928127,implicit
P45,10,3.666128874,TLD,3,1,left,0.0,3.666128874,implicit
P45,11,2.709875822,TLD,3,1,right,1.0,2.709875822,implicit
P45,12,2.383352041,TLD,3,1,right,0.0,2.383352041,implicit
P45,13,2.201747894,TLD,3,1,right,0.0,2.201747894,implicit
P45,14,2.841784954,TLD,3,1,left,1.0,2.841784954,implicit
P45,15,2.885910988,TLD,3,1,left,0.0,2.885910988,implicit
P45,16,2.227942944,TLD,3,1,right,1.0,2.227942944,implicit
P45,17,2.826162815,TLD,3,1,left,1.0,2.826162815,implicit
P45,18,2.739249945,TLD,3,1,right,1.0,2.739249945,implicit
P45,19,2.501093864,TLD,3,1,right,0.0,2.501093864,implicit
P45,20,2.994724989,TLD,3,1,left,1.0,2.994724989,implicit
P45,21,3.099664927,TLD,3,1,left,0.0,3.099664927,implicit
P45,22,2.645072937,TLD,3,1,right,1.0,2.645072937,implicit
P45,23,2.662250042,TLD,3,1,left,1.0,2.662250042,implicit
P45,24,2.380377054,TLD,3,1,right,1.0,2.380377054,implicit
P45,25,3.146161079,TLD,3,1,right,0.0,3.146161079,implicit
P45,26,3.093350172,TLD,3,1,left,1.0,3.093350172,implicit
P45,27,1.525744915,TLD,3,1,right,1.0,1.525744915,implicit
P45,28,1.894006014,TLD,3,0,left,1.0,1.894006014,implicit
P45,29,1.136713982,TLD,3,1,left,0.0,1.136713982,implicit
P45,30,2.574429035,TLD,3,1,right,1.0,2.574429035,implicit
P45,31,2.764928102,TLD,3,1,left,1.0,2.764928102,implicit
P45,32,2.473268032,TLD,3,1,right,1.0,2.473268032,implicit
P45,33,2.5955019,TLD,3,1,right,0.0,2.5955019,implicit
P45,34,3.077512026,TLD,3,1,left,1.0,3.077512026,implicit
P45,35,2.653883934,TLD,3,1,left,0.0,2.653883934,implicit
P45,36,2.360230207,TLD,3,1,right,1.0,2.360230207,implicit
P45,37,2.627126932,TLD,3,1,left,1.0,2.627126932,implicit
P45,38,2.543853998,TLD,3,1,right,1.0,2.543853998,implicit
P45,39,2.183742046,TLD,3,1,right,0.0,2.183742046,implicit
P45,40,2.876938105,TLD,3,1,left,1.0,2.876938105,implicit
P45,41,2.311954975,TLD,3,1,right,1.0,2.311954975,implicit
P45,42,3.061683178,TLD,3,1,left,1.0,3.061683178,implicit
P45,43,2.996186018,TLD,3,1,right,1.0,2.996186018,implicit
P45,44,2.61017108,TLD,3,1,left,1.0,2.61017108,implicit
P45,45,2.760154963,TLD,3,1,right,1.0,2.760154963,implicit
P45,46,3.484634876,TLD,3,1,right,0.0,3.484634876,implicit
P45,47,3.876091957,TLD,3,1,left,1.0,3.876091957,implicit
P45,48,3.217924833,TLD,3,1,left,0.0,3.217924833,implicit
P46,1,0.5403130054,TLD,3,1,left,0.0,,implicit
P46,2,2.660844088,TLD,3,1,right,1.0,2.660844088,implicit
P46,3,2.345756054,TLD,3,1,left,1.0,2.345756054,implicit
P46,4,2.029884815,TLD,3,1,right,1.0,2.029884815,implicit
P46,5,2.26529789,TLD,3,1,right,0.0,2.26529789,implicit
P46,6,2.394567966,TLD,3,1,left,1.0,2.394567966,implicit
P46,7,2.584601879,TLD,3,1,left,0.0,2.584601879,implicit
P46,8,2.129808903,TLD,3,1,right,1.0,2.129808903,implicit
P46,9,2.376646996,TLD,3,1,left,1.0,2.376646996,implicit
P46,10,2.535197973,TLD,3,1,left,0.0,2.535197973,implicit
P46,11,2.228186131,TLD,3,1,right,1.0,2.228186131,implicit
P46,12,2.218163967,TLD,3,1,right,0.0,2.218163967,implicit
P46,13,2.260162115,TLD,3,1,right,0.0,2.260162115,implicit
P46,14,2.540787935,TLD,3,1,left,1.0,2.540787935,implicit
P46,15,2.767271996,TLD,3,1,left,0.0,2.767271996,implicit
P46,16,2.097504854,TLD,3,1,right,1.0,2.097504854,implicit
P46,17,2.410572052,TLD,3,1,left,1.0,2.410572052,implicit
P46,18,2.174165964,TLD,3,1,right,1.0,2.174165964,implicit
P46,19,2.184292078,TLD,3,1,right,0.0,2.184292078,implicit
P46,20,2.342344046,TLD,3,1,left,1.0,2.342344046,implicit
P46,21,2.60395503,TLD,3,1,left,0.0,2.60395503,implicit
P46,22,2.088121891,TLD,3,1,right,1.0,2.088121891,implicit
P46,23,2.428400993,TLD,3,1,left,1.0,2.428400993,implicit
P46,24,2.278419018,TLD,3,1,right,1.0,2.278419018,implicit
P46,25,2.064660072,TLD,3,1,right,0.0,2.064660072,implicit
P46,26,2.745338202,TLD,3,1,left,1.0,2.745338202,implicit
P46,27,2.005798817,TLD,3,1,right,1.0,2.005798817,implicit
P46,28,2.408592939,TLD,3,1,left,1.0,2.408592939,implicit
P46,29,2.435176134,TLD,3,1,left,0.0,2.435176134,implicit
P46,30,2.096144915,TLD,3,1,right,1.0,2.096144915,implicit
P46,31,2.430944204,TLD,3,0,left,1.0,2.430944204,implicit
P46,32,2.290293932,TLD,3,1,right,1.0,2.290293932,implicit
P46,33,2.432829857,TLD,3,1,right,0.0,2.432829857,implicit
P46,34,2.361220837,TLD,3,1,left,1.0,2.361220837,implicit
P46,35,2.703842163,TLD,3,1,left,0.0,2.703842163,implicit
P46,36,2.24179101,TLD,3,1,right,1.0,2.24179101,implicit
P46,37,2.397465944,TLD,3,1,left,1.0,2.397465944,implicit
P46,38,1.960132122,TLD,3,1,right,1.0,1.960132122,implicit
P46,39,2.353351831,TLD,3,1,right,0.0,2.353351831,implicit
P46,40,2.540177107,TLD,3,1,left,1.0,2.540177107,implicit
P46,41,2.611922026,TLD,3,1,right,1.0,2.611922026,implicit
P46,42,2.312716007,TLD,3,1,left,1.0,2.312716007,implicit
P46,43,2.131705046,TLD,3,0,right,1.0,2.131705046,implicit
P46,44,2.743750811,TLD,3,1,left,1.0,2.743750811,implicit
P46,45,1.996324062,TLD,3,1,right,1.0,1.996324062,implicit
P46,46,2.114760876,TLD,3,1,right,0.0,2.114760876,implicit
P46,47,2.394410849,TLD,3,1,left,1.0,2.394410849,implicit
P46,48,2.77030611,TLD,3,1,left,0.0,2.77030611,implicit
P47,1,5.62938714,TLD,4,1,right,0.0,,implicit
P47,2,4.760699034,TLD,4,1,left,1.0,,implicit
P47,3,3.991517067,TLD,4,1,right,1.0,3.991517067,implicit
P47,4,2.41640687,TLD,4,0,right,0.0,2.41640687,implicit
P47,5,4.99495697,TLD,4,1,left,1.0,,implicit
P47,6,4.899989128,TLD,4,1,left,0.0,,implicit
P47,7,4.577153921,TLD,4,1,right,1.0,4.577153921,implicit
P47,8,3.626752853,TLD,4,1,left,1.0,3.626752853,implicit
P47,9,3.310625076,TLD,4,1,right,1.0,3.310625076,implicit
P47,10,3.296416044,TLD,4,1,left,1.0,3.296416044,implicit
P47,11,3.168921947,TLD,4,1,left,0.0,3.168921947,implicit
P47,12,3.027092934,TLD,4,1,right,1.0,3.027092934,implicit
P47,13,3.252236128,TLD,4,1,right,0.0,3.252236128,implicit
P47,14,3.32444191,TLD,4,1,left,1.0,3.32444191,implicit
P47,15,3.051697969,TLD,4,1,left,0.0,3.051697969,implicit
P47,16,3.411458015,TLD,4,1,right,1.0,3.411458015,implicit
P47,17,3.055911064,TLD,4,1,left,1.0,3.055911064,implicit
P47,18,3.196875811,TLD,4,1,right,1.0,3.196875811,implicit
P47,19,2.927856207,TLD,4,1,left,1.0,2.927856207,implicit
P47,20,2.944728136,TLD,4,1,right,1.0,2.944728136,implicit
P47,21,2.890742064,TLD,4,1,left,1.0,2.890742064,implicit
P47,22,3.517237902,TLD,4,1,left,0.0,3.517237902,implicit
P47,23,3.229029894,TLD,4,1,right,1.0,3.229029894,implicit
P47,24,3.251590014,TLD,4,1,right,0.0,3.251590014,implicit
P47,25,2.996954918,TLD,4,1,left,0.0,2.996954918,implicit
P47,26,2.661839962,TLD,4,1,right,1.0,2.661839962,implicit
P47,27,2.547796011,TLD,4,1,left,1.0,2.547796011,implicit
P47,28,2.345065117,TLD,4,1,right,1.0,2.345065117,implicit
P47,29,2.683990002,TLD,4,1,right,0.0,2.683990002,implicit
P47,30,3.391581059,TLD,4,1,left,1.0,3.391581059,implicit
P47,31,3.588123083,TLD,4,1,left,0.0,3.588123083,implicit
P47,32,3.641717911,TLD,4,1,right,1.0,3.641717911,implicit
P47,33,3.11541605,TLD,4,1,right,0.0,3.11541605,implicit
P47,34,3.393670082,TLD,4,1,left,1.0,3.393670082,implicit
P47,35,3.44348383,TLD,4,1,right,1.0,3.44348383,implicit
P47,36,3.562659979,TLD,4,1,left,1.0,3.562659979,implicit
P47,37,3.162410021,TLD,4,1,right,1.0,3.162410021,implicit
P47,38,2.661875963,TLD,4,1,left,1.0,2.661875963,implicit
P47,39,2.816776991,TLD,4,1,left,0.0,2.816776991,implicit
P47,40,3.01342988,TLD,4,1,right,1.0,3.01342988,implicit
P47,41,3.260016918,TLD,4,1,left,1.0,3.260016918,implicit
P47,42,2.811001778,TLD,4,1,right,1.0,2.811001778,implicit
P47,43,2.979360819,TLD,4,1,left,1.0,2.979360819,implicit
P47,44,2.697025061,TLD,4,1,right,1.0,2.697025061,implicit
P47,45,2.951287985,TLD,4,1,right,0.0,2.951287985,implicit
P47,46,2.925770998,TLD,4,1,left,1.0,2.925770998,implicit
P47,47,3.537513971,TLD,4,1,left,0.0,3.537513971,implicit
P47,48,4.724012852,TLD,4,0,right,1.0,,implicit
P50,1,2.759920835,TLD,6,1,right,0.0,2.759920835,implicit
P50,2,3.061023951,TLD,6,1,left,1.0,3.061023951,implicit
P50,3,3.135824919,TLD,6,1,left,0.0,3.135824919,implicit
P50,4,2.352239847,TLD,6,1,right,1.0,2.352239847,implicit
P50,5,2.777011156,TLD,6,1,left,1.0,2.777011156,implicit
P50,6,1.356842995,TLD,6,1,right,1.0,1.356842995,implicit
P50,7,3.396291018,TLD,6,1,left,1.0,3.396291018,implicit
P50,8,3.659361124,TLD,6,1,right,1.0,3.659361124,implicit
P50,9,2.766716957,TLD,6,1,right,0.0,2.766716957,implicit
P50,10,2.925696135,TLD,6,1,left,1.0,2.925696135,implicit
P50,11,3.069868088,TLD,6,1,left,0.0,3.069868088,implicit
P50,12,2.837666035,TLD,6,1,right,1.0,2.837666035,implicit
P50,13,3.014281988,TLD,6,1,right,0.0,3.014281988,implicit
P50,14,3.209787846,TLD,6,1,left,1.0,3.209787846,implicit
P50,15,2.891670942,TLD,6,1,right,1.0,2.891670942,implicit
P50,16,2.932017088,TLD,6,1,right,0.0,2.932017088,implicit
P50,17,3.145607948,TLD,6,1,left,1.0,3.145607948,implicit
P50,18,3.161432981,TLD,6,1,left,0.0,3.161432981,implicit
P50,19,3.203058958,TLD,6,1,left,0.0,3.203058958,implicit
P50,20,2.710067987,TLD,6,1,right,1.0,2.710067987,implicit
P50,21,3.380727053,TLD,6,1,left,1.0,3.380727053,implicit
P50,22,2.805960178,TLD,6,1,right,1.0,2.805960178,implicit
P50,23,2.66656208,TLD,6,1,right,0.0,2.66656208,implicit
P50,24,3.210848808,TLD,6,1,left,1.0,3.210848808,implicit
P50,25,3.160745144,TLD,6,1,left,0.0,3.160745144,implicit
P50,26,2.509757042,TLD,6,1,right,1.0,2.509757042,implicit
P50,27,4.966995955,TLD,6,1,right,0.0,4.966995955,implicit
P50,28,12.85446405,TLD,6,1,left,1.0,,implicit
P50,29,3.142817974,TLD,6,1,right,1.0,3.142817974,implicit
P50,30,3.229276896,TLD,6,1,left,1.0,3.229276896,implicit
P50,31,2.663197041,TLD,6,1,right,1.0,2.663197041,implicit
P50,32,2.646173954,TLD,6,1,left,1.0,2.646173954,implicit
P50,33,3.384266853,TLD,6,1,left,0.0,3.384266853,implicit
P50,34,3.112363815,TLD,6,1,right,1.0,3.112363815,implicit
P50,35,2.977903128,TLD,6,1,left,1.0,2.977903128,implicit
P50,36,2.528325081,TLD,6,1,right,1.0,2.528325081,implicit
P50,37,3.561246872,TLD,6,1,left,1.0,3.561246872,implicit
P50,38,3.345258951,TLD,6,1,right,1.0,3.345258951,implicit
P50,39,4.679722071,TLD,6,1,left,1.0,4.679722071,implicit
P50,40,3.602894068,TLD,6,1,left,0.0,3.602894068,implicit
P50,41,2.604776859,TLD,6,1,right,1.0,2.604776859,implicit
P50,42,2.568127871,TLD,6,1,right,0.0,2.568127871,implicit
P50,43,2.374959946,TLD,6,1,right,0.0,2.374959946,implicit
P50,44,4.628192902,TLD,6,1,left,1.0,4.628192902,implicit
P50,45,2.994813204,TLD,6,0,right,1.0,2.994813204,implicit
P50,46,3.412858009,TLD,6,1,left,1.0,3.412858009,implicit
P50,47,3.003760099,TLD,6,1,left,0.0,3.003760099,implicit
P50,48,2.951519012,TLD,6,1,right,1.0,2.951519012,implicit
P100,1,7.535730124,DLD,5,1,right,0.0,,implicit
P100,2,4.54531002,DLD,5,1,left,1.0,4.54531002,implicit
P100,3,4.71883297,DLD,5,1,left,0.0,4.71883297,implicit
P100,4,4.533302069,DLD,5,1,right,1.0,4.533302069,implicit
P100,5,4.246494055,DLD,5,1,left,1.0,4.246494055,implicit
P100,6,3.774365902,DLD,5,1,right,1.0,3.774365902,implicit
P100,7,2.479141951,DLD,5,1,left,1.0,2.479141951,implicit
P100,8,2.546409845,DLD,5,1,right,1.0,2.546409845,implicit
P100,9,2.252106905,DLD,5,1,right,0.0,2.252106905,implicit
P100,10,2.656346083,DLD,5,1,left,1.0,2.656346083,implicit
P100,11,2.551338196,DLD,5,1,left,0.0,2.551338196,implicit
P100,12,1.97852087,DLD,5,1,right,1.0,1.97852087,implicit
P100,13,2.247479916,DLD,5,1,left,1.0,2.247479916,implicit
P100,14,2.273658991,DLD,5,1,right,1.0,2.273658991,implicit
P100,15,2.429440022,DLD,5,1,left,1.0,2.429440022,implicit
P100,16,2.093612909,DLD,5,1,right,1.0,2.093612909,implicit
P100,17,2.16843605,DLD,5,1,right,0.0,2.16843605,implicit
P100,18,1.527313948,DLD,5,0,left,1.0,1.527313948,implicit
P100,19,3.48484683,DLD,5,1,left,0.0,3.48484683,implicit
P100,20,3.375521898,DLD,5,1,right,1.0,3.375521898,implicit
P100,21,2.46934104,DLD,5,0,right,0.0,2.46934104,implicit
P100,22,3.25675106,DLD,5,1,left,1.0,3.25675106,implicit
P100,23,2.212671041,DLD,5,1,right,1.0,2.212671041,implicit
P100,24,2.893746853,DLD,5,1,left,1.0,2.893746853,implicit
P100,25,2.286856174,DLD,5,1,right,0.0,2.286856174,implicit
P100,26,2.344171047,DLD,5,1,left,1.0,2.344171047,implicit
P100,27,2.081125975,DLD,5,1,right,1.0,2.081125975,implicit
P100,28,2.018399954,DLD,5,0,right,0.0,2.018399954,implicit
P100,29,4.28887701,DLD,5,1,left,1.0,4.28887701,implicit
P100,30,3.002411127,DLD,5,1,left,0.0,3.002411127,implicit
P100,31,1.995717049,DLD,5,1,right,1.0,1.995717049,implicit
P100,32,4.142039061,DLD,5,1,left,1.0,4.142039061,implicit
P100,33,2.978061914,DLD,5,1,right,1.0,2.978061914,implicit
P100,34,2.797631025,DLD,5,1,left,1.0,2.797631025,implicit
P100,35,2.6316998,DLD,5,1,left,0.0,2.6316998,implicit
P100,36,2.294165134,DLD,5,0,right,1.0,2.294165134,implicit
P100,37,2.928533077,DLD,5,1,left,1.0,2.928533077,implicit
P100,38,2.012310982,DLD,5,1,right,1.0,2.012310982,implicit
P100,39,2.491678,DLD,5,1,left,1.0,2.491678,implicit
P100,40,2.369019032,DLD,5,0,left,0.0,2.369019032,implicit
P100,41,3.02738595,DLD,5,1,right,1.0,3.02738595,implicit
P100,42,3.550417185,DLD,5,1,right,0.0,3.550417185,implicit
P100,43,5.064075947,DLD,5,1,right,0.0,5.064075947,implicit
P100,44,3.978240013,DLD,5,1,left,1.0,3.978240013,implicit
P100,45,4.597206116,DLD,5,1,left,0.0,4.597206116,implicit
P100,46,2.677250862,DLD,5,1,right,1.0,2.677250862,implicit
P100,47,3.398539066,DLD,5,1,left,1.0,3.398539066,implicit
P100,48,3.626791954,DLD,5,1,right,1.0,3.626791954,implicit
P55,1,1.120189905,TLD,2,0,left,0.0,1.120189905,implicit
P55,2,2.909423113,TLD,2,1,right,1.0,2.909423113,implicit
P55,3,4.461061001,TLD,2,1,left,1.0,4.461061001,implicit
P55,4,5.684161901,TLD,2,0,left,0.0,,implicit
P55,5,3.445891857,TLD,2,1,right,1.0,3.445891857,implicit
P55,6,7.749575853,TLD,2,1,right,0.0,,implicit
P55,7,3.767734051,TLD,2,0,right,0.0,3.767734051,implicit
P55,8,3.712333918,TLD,2,1,left,1.0,3.712333918,implicit
P55,9,3.865457058,TLD,2,1,left,0.0,3.865457058,implicit
P55,10,2.510135889,TLD,2,1,right,1.0,2.510135889,implicit
P55,11,4.711411953,TLD,2,1,left,1.0,4.711411953,implicit
P55,12,3.943866014,TLD,2,0,right,1.0,3.943866014,implicit
P55,13,0.5129978657,TLD,2,0,left,1.0,0.5129978657,implicit
P55,14,7.279014826,TLD,2,0,right,1.0,,implicit
P55,15,12.84721494,TLD,2,1,right,0.0,,implicit
P55,16,4.228086948,TLD,2,1,left,1.0,4.228086948,implicit
P55,17,3.239938021,TLD,2,1,right,1.0,3.239938021,implicit
P55,18,6.793277979,TLD,2,1,left,1.0,,implicit
P55,19,1.517856121,TLD,2,1,left,0.0,1.517856121,implicit
P55,20,0.509747982,TLD,2,0,right,1.0,0.509747982,implicit
P55,21,0.5105450153,TLD,2,1,left,1.0,0.5105450153,implicit
P55,22,0.5104310513,TLD,2,0,right,1.0,0.5104310513,implicit
P55,23,6.603194952,TLD,2,1,right,0.0,,implicit
P55,24,4.99205184,TLD,2,1,left,1.0,4.99205184,implicit
P55,25,1.707733154,TLD,2,1,right,0.0,1.707733154,implicit
P55,26,2.797487974,TLD,2,1,left,1.0,2.797487974,implicit
P55,27,2.028560877,TLD,2,1,right,1.0,2.028560877,implicit
P55,28,2.02235198,TLD,2,1,right,0.0,2.02235198,implicit
P55,29,2.660358906,TLD,2,0,left,1.0,2.660358906,implicit
P55,30,4.554449081,TLD,2,1,left,0.0,4.554449081,implicit
P55,31,1.992590904,TLD,2,1,right,1.0,1.992590904,implicit
P55,32,3.311915874,TLD,2,1,left,1.0,3.311915874,implicit
P55,33,2.47555995,TLD,2,1,right,1.0,2.47555995,implicit
P55,34,2.281836987,TLD,2,1,left,1.0,2.281836987,implicit
P55,35,2.414671183,TLD,2,0,left,0.0,2.414671183,implicit
P55,36,3.861850977,TLD,2,1,right,1.0,3.861850977,implicit
P55,37,2.135880947,TLD,2,1,right,0.0,2.135880947,implicit
P55,38,2.96050477,TLD,2,1,left,1.0,2.96050477,implicit
P55,39,3.020481825,TLD,2,1,left,0.0,3.020481825,implicit
P55,40,2.176964998,TLD,2,1,right,1.0,2.176964998,implicit
P55,41,2.24801302,TLD,2,1,left,1.0,2.24801302,implicit
P55,42,2.129716873,TLD,2,1,right,1.0,2.129716873,implicit
P55,43,3.477494955,TLD,2,1,left,1.0,3.477494955,implicit
P55,44,0.7117340565,TLD,2,1,right,1.0,0.7117340565,implicit
P55,45,0.6018278599,TLD,2,1,right,0.0,0.6018278599,implicit
P55,46,0.5113589764,TLD,2,0,left,1.0,0.5113589764,implicit
P55,47,0.5209400654,TLD,2,0,left,0.0,0.5209400654,implicit
P55,48,0.5120761395,TLD,2,1,right,1.0,0.5120761395,implicit
P60,1,1.285907984,TLD,4,0,right,0.0,1.285907984,implicit
P60,2,1.263683796,TLD,4,0,left,1.0,1.263683796,implicit
P60,3,5.111979008,TLD,4,1,right,1.0,5.111979008,implicit
P60,4,2.218168974,TLD,4,0,right,0.0,2.218168974,implicit
P60,5,5.089121819,TLD,4,1,left,1.0,5.089121819,implicit
P60,6,3.30415082,TLD,4,0,left,0.0,3.30415082,implicit
P60,7,3.095182896,TLD,4,0,right,1.0,3.095182896,implicit
P60,8,3.545156002,TLD,4,1,left,1.0,3.545156002,implicit
P60,9,7.211966038,TLD,4,1,right,1.0,7.211966038,implicit
P60,10,3.229836941,TLD,4,0,left,1.0,3.229836941,implicit
P60,11,3.46973896,TLD,4,0,left,0.0,3.46973896,implicit
P60,12,3.338618994,TLD,4,1,right,1.0,3.338618994,implicit
P60,13,3.432278156,TLD,4,0,right,0.0,3.432278156,implicit
P60,14,6.476415157,TLD,4,1,left,1.0,6.476415157,implicit
P60,15,3.568508863,TLD,4,0,left,0.0,3.568508863,implicit
P60,16,7.01115799,TLD,4,1,right,1.0,7.01115799,implicit
P60,17,4.979883909,TLD,4,1,left,1.0,4.979883909,implicit
P60,18,5.095948935,TLD,4,1,right,1.0,5.095948935,implicit
P60,19,8.178632975,TLD,4,1,left,1.0,8.178632975,implicit
P60,20,1.541167021,TLD,4,0,right,1.0,1.541167021,implicit
P60,21,3.130454779,TLD,4,1,left,1.0,3.130454779,implicit
P60,22,2.467012882,TLD,4,1,left,0.0,2.467012882,implicit
P60,23,3.879617214,TLD,4,1,right,1.0,3.879617214,implicit
P60,24,8.484459162,TLD,4,1,right,0.0,8.484459162,implicit
P60,25,3.683614969,TLD,4,1,left,0.0,3.683614969,implicit
P60,26,3.061781883,TLD,4,1,right,1.0,3.061781883,implicit
P60,27,2.996230841,TLD,4,1,left,1.0,2.996230841,implicit
P60,28,2.547694921,TLD,4,1,right,1.0,2.547694921,implicit
P60,29,2.883321047,TLD,4,1,right,0.0,2.883321047,implicit
P60,30,2.992281199,TLD,4,1,left,1.0,2.992281199,implicit
P60,31,3.352718115,TLD,4,0,left,0.0,3.352718115,implicit
P60,32,2.591912031,TLD,4,0,right,1.0,2.591912031,implicit
P60,33,0.5180048943,TLD,4,1,right,0.0,0.5180048943,implicit
P60,34,3.126688004,TLD,4,1,left,1.0,3.126688004,implicit
P60,35,2.678021193,TLD,4,1,right,1.0,2.678021193,implicit
P60,36,2.910603046,TLD,4,1,left,1.0,2.910603046,implicit
P60,37,2.296480894,TLD,4,1,right,1.0,2.296480894,implicit
P60,38,7.378220797,TLD,4,1,left,1.0,7.378220797,implicit
P60,39,4.63525486,TLD,4,1,left,0.0,4.63525486,implicit
P60,40,2.814038038,TLD,4,1,right,1.0,2.814038038,implicit
P60,41,3.092597961,TLD,4,1,left,1.0,3.092597961,implicit
P60,42,3.695199013,TLD,4,1,right,1.0,3.695199013,implicit
P60,43,3.012276173,TLD,4,1,left,1.0,3.012276173,implicit
P60,44,1.530133009,TLD,4,1,right,1.0,1.530133009,implicit
P60,45,10.88170004,TLD,4,1,right,0.0,10.88170004,implicit
P60,46,5.624680996,TLD,4,1,left,1.0,5.624680996,implicit
P60,47,10.00088501,TLD,4,1,left,0.0,10.00088501,implicit
P60,48,2.442009926,TLD,4,1,right,1.0,2.442009926,implicit
P62,1,3.263264179,DLD,5,1,right,0.0,3.263264179,implicit
P62,2,2.813205957,DLD,5,1,left,1.0,2.813205957,implicit
P62,3,2.964492083,DLD,5,1,left,0.0,2.964492083,implicit
P62,4,3.009752989,DLD,5,1,right,1.0,3.009752989,implicit
P62,5,2.596860886,DLD,5,1,left,1.0,2.596860886,implicit
P62,6,2.412294149,DLD,5,1,right,1.0,2.412294149,implicit
P62,7,2.991844893,DLD,5,1,left,1.0,2.991844893,implicit
P62,8,3.626966,DLD,5,1,right,1.0,3.626966,implicit
P62,9,2.765172005,DLD,5,1,right,0.0,2.765172005,implicit
P62,10,2.825165033,DLD,5,1,left,1.0,2.825165033,implicit
P62,11,3.28579402,DLD,5,1,left,0.0,3.28579402,implicit
P62,12,3.262283087,DLD,5,1,right,1.0,3.262283087,implicit
P62,13,4.077859163,DLD,5,1,left,1.0,4.077859163,implicit
P62,14,3.010048866,DLD,5,1,right,1.0,3.010048866,implicit
P62,15,2.415422916,DLD,5,1,left,1.0,2.415422916,implicit
P62,16,2.156774044,DLD,5,1,right,1.0,2.156774044,implicit
P62,17,1.263524055,DLD,5,0,right,0.0,,implicit
P62,18,0.5101788044,DLD,5,1,left,1.0,,implicit
P62,19,3.334581137,DLD,5,1,left,0.0,3.334581137,implicit
P62,20,2.745737076,DLD,5,1,right,1.0,2.745737076,implicit
P62,21,2.679063082,DLD,5,1,right,0.0,2.679063082,implicit
P62,22,2.82319212,DLD,5,1,left,1.0,2.82319212,implicit
P62,23,3.043988943,DLD,5,1,right,1.0,3.043988943,implicit
P62,24,2.679963112,DLD,5,1,left,1.0,2.679963112,implicit
P62,25,2.654469013,DLD,5,1,right,0.0,2.654469013,implicit
P62,26,3.496272087,DLD,5,1,left,1.0,3.496272087,implicit
P62,27,2.192618132,DLD,5,1,right,1.0,2.192618132,implicit
P62,28,1.865048885,DLD,5,0,right,0.0,1.865048885,implicit
P62,29,3.010943174,DLD,5,1,left,1.0,3.010943174,implicit
P62,30,2.702060938,DLD,5,1,left,0.0,2.702060938,implicit
P62,31,2.880050182,DLD,5,1,right,1.0,2.880050182,implicit
P62,32,2.627729177,DLD,5,1,left,1.0,2.627729177,implicit
P62,33,2.160791874,DLD,5,1,right,1.0,2.160791874,implicit
P62,34,2.813863993,DLD,5,1,left,1.0,2.813863993,implicit
P62,35,2.66894412,DLD,5,0,left,0.0,2.66894412,implicit
P62,36,3.504612923,DLD,5,1,right,1.0,3.504612923,implicit
P62,37,2.978509903,DLD,5,0,left,1.0,2.978509903,implicit
P62,38,3.262865782,DLD,5,0,right,1.0,3.262865782,implicit
P62,39,3.261455059,DLD,5,0,left,1.0,3.261455059,implicit
P62,40,3.569009781,DLD,5,0,left,0.0,3.569009781,implicit
P62,41,4.110470057,DLD,5,1,right,1.0,4.110470057,implicit
P62,42,2.632376909,DLD,5,1,right,0.0,2.632376909,implicit
P62,43,2.483575106,DLD,5,1,right,0.0,2.483575106,implicit
P62,44,2.7792871,DLD,5,1,left,1.0,2.7792871,implicit
P62,45,2.884157896,DLD,5,1,left,0.0,2.884157896,implicit
P62,46,2.594589949,DLD,5,1,right,1.0,2.594589949,implicit
P62,47,3.347503185,DLD,5,1,left,1.0,3.347503185,implicit
P62,48,3.574754,DLD,5,1,right,1.0,3.574754,implicit
P63,1,3.348620892,TLD,1,1,left,0.0,3.348620892,implicit
P63,2,5.412737131,TLD,1,1,right,1.0,,implicit
P63,3,2.684782982,TLD,1,1,right,0.0,2.684782982,implicit
P63,4,2.625298023,TLD,1,1,left,1.0,2.625298023,implicit
P63,5,2.81974411,TLD,1,1,left,0.0,2.81974411,implicit
P63,6,2.378021955,TLD,1,1,right,1.0,2.378021955,implicit
P63,7,2.535095215,TLD,1,1,right,0.0,2.535095215,implicit
P63,8,2.743242979,TLD,1,1,left,1.0,2.743242979,implicit
P63,9,2.818741083,TLD,1,0,left,0.0,2.818741083,implicit
P63,10,2.627907038,TLD,1,1,right,1.0,2.627907038,implicit
P63,11,2.83187294,TLD,1,1,left,1.0,2.83187294,implicit
P63,12,2.507480145,TLD,1,1,right,1.0,2.507480145,implicit
P63,13,2.983664036,TLD,1,1,right,0.0,2.983664036,implicit
P63,14,2.495553017,TLD,1,1,left,1.0,2.495553017,implicit
P63,15,3.505623102,TLD,1,1,right,1.0,3.505623102,implicit
P63,16,2.783587933,TLD,1,0,right,0.0,2.783587933,implicit
P63,17,3.077669144,TLD,1,1,left,1.0,3.077669144,implicit
P63,18,3.087471008,TLD,1,1,left,0.0,3.087471008,implicit
P63,19,2.24601984,TLD,1,1,right,1.0,2.24601984,implicit
P63,20,2.481113911,TLD,1,1,left,1.0,2.481113911,implicit
P63,21,2.13004303,TLD,1,1,right,1.0,2.13004303,implicit
P63,22,2.514193058,TLD,1,1,left,1.0,2.514193058,implicit
P63,23,2.635071993,TLD,1,0,left,0.0,2.635071993,implicit
P63,24,3.077572107,TLD,1,1,right,1.0,3.077572107,implicit
P63,25,1.687282085,TLD,1,1,left,0.0,1.687282085,implicit
P63,26,2.84284091,TLD,1,1,right,1.0,2.84284091,implicit
P63,27,2.882254839,TLD,1,1,left,1.0,2.882254839,implicit
P63,28,4.298233986,TLD,1,0,left,0.0,4.298233986,implicit
P63,29,2.61077404,TLD,1,1,right,1.0,2.61077404,implicit
P63,30,2.218862057,TLD,1,1,right,0.0,2.218862057,implicit
P63,31,2.329844952,TLD,1,0,right,0.0,2.329844952,implicit
P63,32,2.895242929,TLD,1,0,left,1.0,2.895242929,implicit
P63,33,2.717885017,TLD,1,1,left,0.0,2.717885017,implicit
P63,34,2.213949919,TLD,1,1,right,1.0,2.213949919,implicit
P63,35,2.893215895,TLD,1,1,left,1.0,2.893215895,implicit
P63,36,2.828660011,TLD,1,1,right,1.0,2.828660011,implicit
P63,37,2.998041868,TLD,1,1,left,1.0,2.998041868,implicit
P63,38,2.743016005,TLD,1,1,right,1.0,2.743016005,implicit
P63,39,2.802556038,TLD,1,1,right,0.0,2.802556038,implicit
P63,40,3.309341908,TLD,1,1,left,1.0,3.309341908,implicit
P63,41,2.381594896,TLD,1,1,right,1.0,2.381594896,implicit
P63,42,4.077059031,TLD,1,1,left,1.0,4.077059031,implicit
P63,43,3.285127878,TLD,1,1,left,0.0,3.285127878,implicit
P63,44,2.313773155,TLD,1,1,right,1.0,2.313773155,implicit
P63,45,2.841099977,TLD,1,1,left,1.0,2.841099977,implicit
P63,46,2.512640953,TLD,1,1,right,1.0,2.512640953,implicit
P63,47,2.11760211,TLD,1,0,right,0.0,2.11760211,implicit
P63,48,1.896214962,TLD,1,0,left,1.0,1.896214962,implicit
P64,1,4.046477079,TLD,5,1,right,0.0,4.046477079,implicit
P64,2,3.04625392,TLD,5,1,left,1.0,3.04625392,implicit
P64,3,3.132169008,TLD,5,1,left,0.0,3.132169008,implicit
P64,4,2.892185926,TLD,5,1,right,1.0,2.892185926,implicit
P64,5,2.797724962,TLD,5,1,left,1.0,2.797724962,implicit
P64,6,2.824904919,TLD,5,1,right,1.0,2.824904919,implicit
P64,7,2.9306252,TLD,5,1,left,1.0,2.9306252,implicit
P64,8,2.426747084,TLD,5,1,right,1.0,2.426747084,implicit
P64,9,2.767741919,TLD,5,1,right,0.0,2.767741919,implicit
P64,10,2.841067791,TLD,5,1,left,1.0,2.841067791,implicit
P64,11,3.953189135,TLD,5,1,left,0.0,3.953189135,implicit
P64,12,2.81334281,TLD,5,1,right,1.0,2.81334281,implicit
P64,13,2.811009884,TLD,5,1,left,1.0,2.811009884,implicit
P64,14,2.595572948,TLD,5,1,right,1.0,2.595572948,implicit
P64,15,2.580307007,TLD,5,1,left,1.0,2.580307007,implicit
P64,16,2.146652937,TLD,5,1,right,1.0,2.146652937,implicit
P64,17,3.114559889,TLD,5,1,right,0.0,3.114559889,implicit
P64,18,2.660239935,TLD,5,1,left,1.0,2.660239935,implicit
P64,19,3.071110964,TLD,5,1,left,0.0,3.071110964,implicit
P64,20,2.208289862,TLD,5,1,right,1.0,2.208289862,implicit
P64,21,2.716973066,TLD,5,1,right,0.0,2.716973066,implicit
P64,22,2.726810932,TLD,5,1,left,1.0,2.726810932,implicit
P64,23,2.196203947,TLD,5,1,right,1.0,2.196203947,implicit
P64,24,2.595034838,TLD,5,1,left,1.0,2.595034838,implicit
P64,25,2.349974871,TLD,5,1,right,0.0,2.349974871,implicit
P64,26,2.761909008,TLD,5,1,left,1.0,2.761909008,implicit
P64,27,2.62862587,TLD,5,1,right,1.0,2.62862587,implicit
P64,28,2.217591047,TLD,5,0,right,0.0,2.217591047,implicit
P64,29,3.294395924,TLD,5,1,left,1.0,3.294395924,implicit
P64,30,3.435085058,TLD,5,1,left,0.0,3.435085058,implicit
P64,31,2.158508778,TLD,5,1,right,1.0,2.158508778,implicit
P64,32,2.61294508,TLD,5,1,left,1.0,2.61294508,implicit
P64,33,2.04765296,TLD,5,1,right,1.0,2.04765296,implicit
P64,34,2.344285965,TLD,5,0,left,1.0,2.344285965,implicit
P64,35,0.5209920406,TLD,5,1,left,0.0,,implicit
P64,36,2.543084145,TLD,5,1,right,1.0,2.543084145,implicit
P64,37,2.547117949,TLD,5,1,left,1.0,2.547117949,implicit
P64,38,2.013717175,TLD,5,1,right,1.0,2.013717175,implicit
P64,39,2.442590952,TLD,5,1,left,1.0,2.442590952,implicit
P64,40,2.769826889,TLD,5,1,left,0.0,2.769826889,implicit
P64,41,2.493308067,TLD,5,1,right,1.0,2.493308067,implicit
P64,42,2.251600027,TLD,5,1,right,0.0,2.251600027,implicit
P64,43,2.266688108,TLD,5,1,right,0.0,2.266688108,implicit
P64,44,3.012009859,TLD,5,1,left,1.0,3.012009859,implicit
P64,45,2.436073065,TLD,5,1,left,0.0,2.436073065,implicit
P64,46,2.87755084,TLD,5,1,right,1.0,2.87755084,implicit
P64,47,2.794041872,TLD,5,1,left,1.0,2.794041872,implicit
P64,48,2.86064887,TLD,5,1,right,1.0,2.86064887,implicit
P65,1,3.01788187,DLD,1,1,left,0.0,3.01788187,implicit
P65,2,3.209078074,DLD,1,1,right,1.0,3.209078074,implicit
P65,3,2.833554983,DLD,1,1,right,0.0,2.833554983,implicit
P65,4,2.373021841,DLD,1,1,left,1.0,2.373021841,implicit
P65,5,13.53171206,DLD,1,1,left,0.0,,implicit
P65,6,2.805762053,DLD,1,1,right,1.0,2.805762053,implicit
P65,7,3.164620876,DLD,1,1,right,0.0,3.164620876,implicit
P65,8,2.612048864,DLD,1,1,left,1.0,2.612048864,implicit
P65,9,2.800783157,DLD,1,1,left,0.0,2.800783157,implicit
P65,10,2.227290869,DLD,1,1,right,1.0,2.227290869,implicit
P65,11,2.56202507,DLD,1,1,left,1.0,2.56202507,implicit
P65,12,2.045995951,DLD,1,1,right,1.0,2.045995951,implicit
P65,13,2.796905994,DLD,1,1,right,0.0,2.796905994,implicit
P65,14,2.660192966,DLD,1,1,left,1.0,2.660192966,implicit
P65,15,2.4114151,DLD,1,1,right,1.0,2.4114151,implicit
P65,16,3.184103012,DLD,1,1,right,0.0,3.184103012,implicit
P65,17,2.75701189,DLD,1,1,left,1.0,2.75701189,implicit
P65,18,2.552503109,DLD,1,1,left,0.0,2.552503109,implicit
P65,19,2.624881029,DLD,1,1,right,1.0,2.624881029,implicit
P65,20,3.264075994,DLD,1,1,left,1.0,3.264075994,implicit
P65,21,2.872073174,DLD,1,1,right,1.0,2.872073174,implicit
P65,22,2.777409077,DLD,1,1,left,1.0,2.777409077,implicit
P65,23,2.687100887,DLD,1,1,left,0.0,2.687100887,implicit
P65,24,2.274035215,DLD,1,1,right,1.0,2.274035215,implicit
P65,25,2.553574085,DLD,1,1,left,0.0,2.553574085,implicit
P65,26,2.560989857,DLD,1,1,right,1.0,2.560989857,implicit
P65,27,2.67889595,DLD,1,1,left,1.0,2.67889595,implicit
P65,28,3.137360811,DLD,1,1,left,0.0,3.137360811,implicit
P65,29,2.575783014,DLD,1,1,right,1.0,2.575783014,implicit
P65,30,2.800379038,DLD,1,1,right,0.0,2.800379038,implicit
P65,31,2.666814089,DLD,1,1,right,0.0,2.666814089,implicit
P65,32,2.523455858,DLD,1,1,left,1.0,2.523455858,implicit
P65,33,3.352930069,DLD,1,1,left,0.0,3.352930069,implicit
P65,34,2.710353136,DLD,1,1,right,1.0,2.710353136,implicit
P65,35,2.879875898,DLD,1,1,left,1.0,2.879875898,implicit
P65,36,2.520118952,DLD,1,1,right,1.0,2.520118952,implicit
P65,37,2.71398592,DLD,1,1,left,1.0,2.71398592,implicit
P65,38,2.244740009,DLD,1,1,right,1.0,2.244740009,implicit
P65,39,2.751166105,DLD,1,1,right,0.0,2.751166105,implicit
P65,40,2.910969973,DLD,1,1,left,1.0,2.910969973,implicit
P65,41,4.010907888,DLD,1,1,right,1.0,,implicit
P65,42,3.313953877,DLD,1,1,left,1.0,3.313953877,implicit
P65,43,2.917818069,DLD,1,1,left,0.0,2.917818069,implicit
P65,44,2.509844065,DLD,1,1,right,1.0,2.509844065,implicit
P65,45,2.714611053,DLD,1,1,left,1.0,2.714611053,implicit
P65,46,2.444099903,DLD,1,1,right,1.0,2.444099903,implicit
P65,47,2.165192842,DLD,1,1,right,0.0,2.165192842,implicit
P65,48,2.875766039,DLD,1,1,left,1.0,2.875766039,implicit
P67,1,3.725584984,DLD,1,1,left,0.0,3.725584984,implicit
P67,2,1.510595083,DLD,1,1,right,1.0,1.510595083,implicit
P67,3,2.453286886,DLD,1,1,right,0.0,2.453286886,implicit
P67,4,3.025718927,DLD,1,1,left,1.0,3.025718927,implicit
P67,5,2.602143049,DLD,1,1,left,0.0,2.602143049,implicit
P67,6,2.060065031,DLD,1,1,right,1.0,2.060065031,implicit
P67,7,2.403079987,DLD,1,1,right,0.0,2.403079987,implicit
P67,8,2.50688386,DLD,1,1,left,1.0,2.50688386,implicit
P67,9,2.769836903,DLD,1,1,left,0.0,2.769836903,implicit
P67,10,2.34266305,DLD,1,1,right,1.0,2.34266305,implicit
P67,11,2.814837933,DLD,1,1,left,1.0,2.814837933,implicit
P67,12,2.652917147,DLD,1,1,right,1.0,2.652917147,implicit
P67,13,3.217207909,DLD,1,1,right,0.0,3.217207909,implicit
P67,14,2.911943913,DLD,1,1,left,1.0,2.911943913,implicit
P67,15,1.944095135,DLD,1,1,right,1.0,1.944095135,implicit
P67,16,2.246137142,DLD,1,0,right,0.0,2.246137142,implicit
P67,17,2.992353916,DLD,1,1,left,1.0,2.992353916,implicit
P67,18,2.652922869,DLD,1,1,left,0.0,2.652922869,implicit
P67,19,2.546057224,DLD,1,1,right,1.0,2.546057224,implicit
P67,20,3.309411049,DLD,1,1,left,1.0,3.309411049,implicit
P67,21,3.526862144,DLD,1,1,right,1.0,3.526862144,implicit
P67,22,2.348115921,DLD,1,1,left,1.0,2.348115921,implicit
P67,23,1.351840973,DLD,1,0,left,0.0,1.351840973,implicit
P67,24,2.643265963,DLD,1,1,right,1.0,2.643265963,implicit
P67,25,3.368923187,DLD,1,1,left,0.0,3.368923187,implicit
P67,26,2.829947948,DLD,1,1,right,1.0,2.829947948,implicit
P67,27,3.557085037,DLD,1,1,left,1.0,3.557085037,implicit
P67,28,3.734644175,DLD,1,1,left,0.0,3.734644175,implicit
P67,29,2.995732069,DLD,1,1,right,1.0,2.995732069,implicit
P67,30,2.566002846,DLD,1,1,right,0.0,2.566002846,implicit
P67,31,2.750319958,DLD,1,1,right,0.0,2.750319958,implicit
P67,32,2.927184105,DLD,1,1,left,1.0,2.927184105,implicit
P67,33,3.369337082,DLD,1,1,left,0.0,3.369337082,implicit
P67,34,2.507879019,DLD,1,1,right,1.0,2.507879019,implicit
P67,35,3.179230213,DLD,1,1,left,1.0,3.179230213,implicit
P67,36,3.612570047,DLD,1,1,right,1.0,3.612570047,implicit
P67,37,2.889899015,DLD,1,1,left,1.0,2.889899015,implicit
P67,38,6.394567966,DLD,1,1,right,1.0,,implicit
P67,39,3.098927975,DLD,1,1,right,0.0,3.098927975,implicit
P67,40,3.075960875,DLD,1,1,left,1.0,3.075960875,implicit
P67,41,2.39507103,DLD,1,1,right,1.0,2.39507103,implicit
P67,42,0.5136289597,DLD,1,1,left,1.0,0.5136289597,implicit
P67,43,2.937583923,DLD,1,0,left,0.0,2.937583923,implicit
P67,44,2.675781012,DLD,1,1,right,1.0,2.675781012,implicit
P67,45,0.9466469288,DLD,1,1,left,1.0,0.9466469288,implicit
P67,46,2.595069885,DLD,1,1,right,1.0,2.595069885,implicit
P67,47,3.484684944,DLD,1,1,right,0.0,3.484684944,implicit
P67,48,2.776607037,DLD,1,1,left,1.0,2.776607037,implicit
P68,1,4.70069313,DLD,6,1,right,0.0,4.70069313,implicit
P68,2,12.09246302,DLD,6,1,left,1.0,12.09246302,implicit
P68,3,5.718746901,DLD,6,1,left,0.0,5.718746901,implicit
P68,4,3.691120863,DLD,6,1,right,1.0,3.691120863,implicit
P68,5,4.096835136,DLD,6,1,left,1.0,4.096835136,implicit
P68,6,3.229557037,DLD,6,1,right,1.0,3.229557037,implicit
P68,7,4.36070013,DLD,6,1,left,1.0,4.36070013,implicit
P68,8,3.061594963,DLD,6,1,right,1.0,3.061594963,implicit
P68,9,2.951425076,DLD,6,1,right,0.0,2.951425076,implicit
P68,10,3.637452841,DLD,6,1,left,1.0,3.637452841,implicit
P68,11,4.067350149,DLD,6,1,left,0.0,4.067350149,implicit
P68,12,2.845974922,DLD,6,1,right,1.0,2.845974922,implicit
P68,13,2.4153409,DLD,6,1,right,0.0,2.4153409,implicit
P68,14,3.009691,DLD,6,1,left,1.0,3.009691,implicit
P68,15,2.980050087,DLD,6,1,right,1.0,2.980050087,implicit
P68,16,2.962445021,DLD,6,1,right,0.0,2.962445021,implicit
P68,17,2.8617239,DLD,6,1,left,1.0,2.8617239,implicit
P68,18,2.767138958,DLD,6,1,left,0.0,2.767138958,implicit
P68,19,4.46885705,DLD,6,1,left,0.0,4.46885705,implicit
P68,20,3.72687006,DLD,6,1,right,1.0,3.72687006,implicit
P68,21,3.830530167,DLD,6,1,left,1.0,3.830530167,implicit
P68,22,3.67209816,DLD,6,1,right,1.0,3.67209816,implicit
P68,23,2.715806961,DLD,6,1,right,0.0,2.715806961,implicit
P68,24,3.328118086,DLD,6,1,left,1.0,3.328118086,implicit
P68,25,3.549849033,DLD,6,1,left,0.0,3.549849033,implicit
P68,26,2.660230875,DLD,6,1,right,1.0,2.660230875,implicit
P68,27,2.729137182,DLD,6,1,right,0.0,2.729137182,implicit
P68,28,3.310886145,DLD,6,1,left,1.0,3.310886145,implicit
P68,29,2.592570066,DLD,6,1,right,1.0,2.592570066,implicit
P68,30,2.597863913,DLD,6,1,left,1.0,2.597863913,implicit
P68,31,2.556028128,DLD,6,1,right,1.0,2.556028128,implicit
P68,32,2.762020111,DLD,6,1,left,1.0,2.762020111,implicit
P68,33,3.420811176,DLD,6,1,left,0.0,3.420811176,implicit
P68,34,2.538789034,DLD,6,1,right,1.0,2.538789034,implicit
P68,35,3.229612112,DLD,6,1,left,1.0,3.229612112,implicit
P68,36,3.443506956,DLD,6,1,right,1.0,3.443506956,implicit
P68,37,3.314165115,DLD,6,1,left,1.0,3.314165115,implicit
P68,38,3.844588041,DLD,6,1,right,1.0,3.844588041,implicit
P68,39,2.97949481,DLD,6,1,left,1.0,2.97949481,implicit
P68,40,3.569427967,DLD,6,1,left,0.0,3.569427967,implicit
P68,41,2.545800924,DLD,6,1,right,1.0,2.545800924,implicit
P68,42,3.166090965,DLD,6,1,right,0.0,3.166090965,implicit
P68,43,5.315688133,DLD,6,1,right,0.0,5.315688133,implicit
P68,44,3.277161837,DLD,6,1,left,1.0,3.277161837,implicit
P68,45,6.611389875,DLD,6,1,right,1.0,6.611389875,implicit
P68,46,23.03915906,DLD,6,1,left,1.0,,implicit
P68,47,6.683197975,DLD,6,1,left,0.0,6.683197975,implicit
P68,48,2.625562191,DLD,6,1,right,1.0,2.625562191,implicit
P70,1,2.246939898,DLD,3,1,left,0.0,2.246939898,implicit
P70,2,0.8634829521,DLD,3,0,right,1.0,,implicit
P70,3,1.196028948,DLD,3,1,left,1.0,,implicit
P70,4,1.561241865,DLD,3,0,right,1.0,1.561241865,implicit
P70,5,2.886543036,DLD,3,1,right,0.0,2.886543036,implicit
P70,6,2.940189838,DLD,3,1,left,1.0,2.940189838,implicit
P70,7,2.685772896,DLD,3,1,left,0.0,2.685772896,implicit
P70,8,2.493510962,DLD,3,1,right,1.0,2.493510962,implicit
P70,9,2.798507929,DLD,3,1,left,1.0,2.798507929,implicit
P70,10,3.118155003,DLD,3,1,left,0.0,3.118155003,implicit
P70,11,2.29401207,DLD,3,0,right,1.0,2.29401207,implicit
P70,12,2.783888102,DLD,3,1,right,0.0,2.783888102,implicit
P70,13,2.485434055,DLD,3,1,right,0.0,2.485434055,implicit
P70,14,3.158109903,DLD,3,1,left,1.0,3.158109903,implicit
P70,15,2.717824936,DLD,3,1,left,0.0,2.717824936,implicit
P70,16,2.313951969,DLD,3,1,right,1.0,2.313951969,implicit
P70,17,2.512567043,DLD,3,1,left,1.0,2.512567043,implicit
P70,18,2.688246965,DLD,3,1,right,1.0,2.688246965,implicit
P70,19,2.551239967,DLD,3,1,right,0.0,2.551239967,implicit
P70,20,3.329617023,DLD,3,1,left,1.0,3.329617023,implicit
P70,21,3.514569998,DLD,3,1,left,0.0,3.514569998,implicit
P70,22,2.490725994,DLD,3,1,right,1.0,2.490725994,implicit
P70,23,2.614830017,DLD,3,1,left,1.0,2.614830017,implicit
P70,24,2.457721949,DLD,3,1,right,1.0,2.457721949,implicit
P70,25,2.444469929,DLD,3,1,right,0.0,2.444469929,implicit
P70,26,2.443758965,DLD,3,1,left,1.0,2.443758965,implicit
P70,27,2.329540014,DLD,3,1,right,1.0,2.329540014,implicit
P70,28,2.246446133,DLD,3,1,left,1.0,2.246446133,implicit
P70,29,2.287220001,DLD,3,0,left,0.0,2.287220001,implicit
P70,30,3.740845203,DLD,3,1,right,1.0,3.740845203,implicit
P70,31,3.229840994,DLD,3,1,left,1.0,3.229840994,implicit
P70,32,2.614592075,DLD,3,1,right,1.0,2.614592075,implicit
P70,33,2.485368013,DLD,3,1,right,0.0,2.485368013,implicit
P70,34,2.638889074,DLD,3,0,left,1.0,2.638889074,implicit
P70,35,3.303499937,DLD,3,1,left,0.0,3.303499937,implicit
P70,36,2.579757929,DLD,3,1,right,1.0,2.579757929,implicit
P70,37,2.642578125,DLD,3,1,left,1.0,2.642578125,implicit
P70,38,2.412465811,DLD,3,1,right,1.0,2.412465811,implicit
P70,39,2.417399168,DLD,3,1,right,0.0,2.417399168,implicit
P70,40,2.946348906,DLD,3,1,left,1.0,2.946348906,implicit
P70,41,3.040827036,DLD,3,1,right,1.0,3.040827036,implicit
P70,42,2.663271904,DLD,3,1,left,1.0,2.663271904,implicit
P70,43,2.361875057,DLD,3,1,right,1.0,2.361875057,implicit
P70,44,2.480530977,DLD,3,1,left,1.0,2.480530977,implicit
P70,45,2.313628912,DLD,3,1,right,1.0,2.313628912,implicit
P70,46,2.600431919,DLD,3,0,right,0.0,2.600431919,implicit
P70,47,4.060760021,DLD,3,1,left,1.0,4.060760021,implicit
P70,48,2.91613102,DLD,3,1,left,0.0,2.91613102,implicit
P71,1,2.475142956,DLD,5,1,right,0.0,2.475142956,implicit
P71,2,5.759624004,DLD,5,1,left,1.0,5.759624004,implicit
P71,3,4.66702795,DLD,5,1,left,0.0,4.66702795,implicit
P71,4,4.426326036,DLD,5,1,right,1.0,4.426326036,implicit
P71,5,3.729455233,DLD,5,0,left,1.0,3.729455233,implicit
P71,6,4.062638998,DLD,5,1,right,1.0,4.062638998,implicit
P71,7,4.441852093,DLD,5,1,left,1.0,4.441852093,implicit
P71,8,3.810355186,DLD,5,1,right,1.0,3.810355186,implicit
P71,9,4.33535409,DLD,5,1,right,0.0,4.33535409,implicit
P71,10,4.443205833,DLD,5,1,left,1.0,4.443205833,implicit
P71,11,4.354818106,DLD,5,1,left,0.0,4.354818106,implicit
P71,12,4.51984787,DLD,5,1,right,1.0,4.51984787,implicit
P71,13,6.162966013,DLD,5,1,left,1.0,6.162966013,implicit
P71,14,6.540019035,DLD,5,1,right,1.0,6.540019035,implicit
P71,15,4.681509972,DLD,5,1,left,1.0,4.681509972,implicit
P71,16,3.373352051,DLD,5,1,right,1.0,3.373352051,implicit
P71,17,1.284024,DLD,5,0,right,0.0,1.284024,implicit
P71,18,1.460818052,DLD,5,0,left,1.0,1.460818052,implicit
P71,19,0.6870441437,DLD,5,1,left,0.0,0.6870441437,implicit
P71,20,0.5108470917,DLD,5,1,right,1.0,0.5108470917,implicit
P71,21,3.850696087,DLD,5,1,right,0.0,3.850696087,implicit
P71,22,2.894298077,DLD,5,1,left,1.0,2.894298077,implicit
P71,23,2.861443996,DLD,5,1,right,1.0,2.861443996,implicit
P71,24,3.014106989,DLD,5,1,left,1.0,3.014106989,implicit
P71,25,3.001931906,DLD,5,1,right,0.0,3.001931906,implicit
P71,26,2.860327959,DLD,5,1,left,1.0,2.860327959,implicit
P71,27,2.644531965,DLD,5,1,right,1.0,2.644531965,implicit
P71,28,3.332865,DLD,5,1,right,0.0,3.332865,implicit
P71,29,2.727857113,DLD,5,1,left,1.0,2.727857113,implicit
P71,30,2.845621109,DLD,5,1,left,0.0,2.845621109,implicit
P71,31,2.428228855,DLD,5,1,right,1.0,2.428228855,implicit
P71,32,2.530758142,DLD,5,1,left,1.0,2.530758142,implicit
P71,33,2.375151873,DLD,5,1,right,1.0,2.375151873,implicit
P71,34,2.409888029,DLD,5,1,left,1.0,2.409888029,implicit
P71,35,3.334197044,DLD,5,1,left,0.0,3.334197044,implicit
P71,36,4.644834042,DLD,5,1,right,1.0,4.644834042,implicit
P71,37,3.212090969,DLD,5,1,left,1.0,3.212090969,implicit
P71,38,2.794723034,DLD,5,1,right,1.0,2.794723034,implicit
P71,39,8.742401838,DLD,5,1,left,1.0,8.742401838,implicit
P71,40,3.102674961,DLD,5,1,left,0.0,3.102674961,implicit
P71,41,0.5117440224,DLD,5,0,right,1.0,0.5117440224,implicit
P71,42,3.103586912,DLD,5,1,right,0.0,3.103586912,implicit
P71,43,13.86215901,DLD,5,1,right,0.0,,implicit
P71,44,3.360879898,DLD,5,1,left,1.0,3.360879898,implicit
P71,45,2.967924118,DLD,5,1,left,0.0,2.967924118,implicit
P71,46,3.12203908,DLD,5,1,right,1.0,3.12203908,implicit
P71,47,2.813925028,DLD,5,1,left,1.0,2.813925028,implicit
P71,48,2.445492983,DLD,5,1,right,1.0,2.445492983,implicit
P72,1,3.679078102,DLD,2,1,left,0.0,3.679078102,implicit
P72,2,3.046041012,DLD,2,1,right,1.0,3.046041012,implicit
P72,3,2.957468987,DLD,2,1,left,1.0,2.957468987,implicit
P72,4,3.401190996,DLD,2,1,left,0.0,3.401190996,implicit
P72,5,3.379221916,DLD,2,1,right,1.0,3.379221916,implicit
P72,6,3.182962894,DLD,2,1,right,0.0,3.182962894,implicit
P72,7,2.800576925,DLD,2,1,right,0.0,2.800576925,implicit
P72,8,2.843764067,DLD,2,1,left,1.0,2.843764067,implicit
P72,9,2.919301987,DLD,2,1,left,0.0,2.919301987,implicit
P72,10,3.068069935,DLD,2,1,right,1.0,3.068069935,implicit
P72,11,2.961330175,DLD,2,1,left,1.0,2.961330175,implicit
P72,12,3.030303955,DLD,2,1,right,1.0,3.030303955,implicit
P72,13,2.96143508,DLD,2,1,left,1.0,2.96143508,implicit
P72,14,3.078431129,DLD,2,1,right,1.0,3.078431129,implicit
P72,15,3.818451166,DLD,2,0,right,0.0,3.818451166,implicit
P72,16,3.00953722,DLD,2,0,left,1.0,3.00953722,implicit
P72,17,3.02809906,DLD,2,1,right,1.0,3.02809906,implicit
P72,18,2.763866901,DLD,2,1,left,1.0,2.763866901,implicit
P72,19,4.065426111,DLD,2,1,left,0.0,4.065426111,implicit
P72,20,3.492375135,DLD,2,1,right,1.0,3.492375135,implicit
P72,21,4.114138842,DLD,2,1,left,1.0,4.114138842,implicit
P72,22,4.025246143,DLD,2,1,right,1.0,4.025246143,implicit
P72,23,3.349205017,DLD,2,1,right,0.0,3.349205017,implicit
P72,24,3.510159016,DLD,2,1,left,1.0,3.510159016,implicit
P72,25,4.562057972,DLD,2,1,right,0.0,4.562057972,implicit
P72,26,3.562891006,DLD,2,1,left,1.0,3.562891006,implicit
P72,27,3.057497025,DLD,2,1,right,1.0,3.057497025,implicit
P72,28,3.032241106,DLD,2,1,right,0.0,3.032241106,implicit
P72,29,3.095942974,DLD,2,1,left,1.0,3.095942974,implicit
P72,30,3.917667866,DLD,2,0,left,0.0,3.917667866,implicit
P72,31,3.143320084,DLD,2,1,right,1.0,3.143320084,implicit
P72,32,3.898388147,DLD,2,1,left,1.0,3.898388147,implicit
P72,33,2.957520962,DLD,2,1,right,1.0,2.957520962,implicit
P72,34,2.860496998,DLD,2,1,left,1.0,2.860496998,implicit
P72,35,3.271091938,DLD,2,1,left,0.0,3.271091938,implicit
P72,36,3.391449928,DLD,2,1,right,1.0,3.391449928,implicit
P72,37,3.63189292,DLD,2,1,right,0.0,3.63189292,implicit
P72,38,4.111288786,DLD,2,1,left,1.0,4.111288786,implicit
P72,39,2.667264938,DLD,2,0,left,0.0,2.667264938,implicit
P72,40,3.778048038,DLD,2,1,right,1.0,3.778048038,implicit
P72,41,3.513175011,DLD,2,1,left,1.0,3.513175011,implicit
P72,42,2.759071827,DLD,2,1,right,1.0,2.759071827,implicit
P72,43,3.3460989,DLD,2,1,left,1.0,3.3460989,implicit
P72,44,1.163982153,DLD,2,1,right,1.0,,implicit
P72,45,4.331851006,DLD,2,1,right,0.0,4.331851006,implicit
P72,46,3.844430923,DLD,2,1,left,1.0,3.844430923,implicit
P72,47,3.12211895,DLD,2,1,left,0.0,3.12211895,implicit
P72,48,3.58899498,DLD,2,1,right,1.0,3.58899498,implicit
P73,1,4.106996059,TLD,3,1,left,0.0,4.106996059,implicit
P73,2,4.495803118,TLD,3,1,right,1.0,4.495803118,implicit
P73,3,3.447049141,TLD,3,1,left,1.0,3.447049141,implicit
P73,4,7.904181957,TLD,3,1,right,1.0,,implicit
P73,5,4.468525887,TLD,3,1,right,0.0,4.468525887,implicit
P73,6,3.759819031,TLD,3,1,left,1.0,3.759819031,implicit
P73,7,2.91779995,TLD,3,1,left,0.0,2.91779995,implicit
P73,8,4.144912004,TLD,3,1,right,1.0,4.144912004,implicit
P73,9,5.844464064,TLD,3,1,left,1.0,,implicit
P73,10,3.471030951,TLD,3,1,left,0.0,3.471030951,implicit
P73,11,3.092257977,TLD,3,1,right,1.0,3.092257977,implicit
P73,12,3.800076962,TLD,3,1,right,0.0,3.800076962,implicit
P73,13,3.218199015,TLD,3,1,right,0.0,3.218199015,implicit
P73,14,3.873335838,TLD,3,1,left,1.0,3.873335838,implicit
P73,15,3.235322952,TLD,3,1,left,0.0,3.235322952,implicit
P73,16,3.01256299,TLD,3,1,right,1.0,3.01256299,implicit
P73,17,2.626955986,TLD,3,0,left,1.0,2.626955986,implicit
P73,18,2.712716818,TLD,3,1,right,1.0,2.712716818,implicit
P73,19,2.702761889,TLD,3,1,right,0.0,2.702761889,implicit
P73,20,3.058896065,TLD,3,1,left,1.0,3.058896065,implicit
P73,21,2.88562417,TLD,3,1,left,0.0,2.88562417,implicit
P73,22,3.160615921,TLD,3,1,right,1.0,3.160615921,implicit
P73,23,2.93094182,TLD,3,1,left,1.0,2.93094182,implicit
P73,24,2.67119503,TLD,3,1,right,1.0,2.67119503,implicit
P73,25,2.333956003,TLD,3,1,right,0.0,2.333956003,implicit
P73,26,5.959208965,TLD,3,1,left,1.0,,implicit
P73,27,3.563066959,TLD,3,1,right,1.0,3.563066959,implicit
P73,28,3.279115915,TLD,3,1,left,1.0,3.279115915,implicit
P73,29,3.070883989,TLD,3,1,left,0.0,3.070883989,implicit
P73,30,4.464278936,TLD,3,1,right,1.0,4.464278936,implicit
P73,31,2.831238985,TLD,3,1,left,1.0,2.831238985,implicit
P73,32,2.693130016,TLD,3,1,right,1.0,2.693130016,implicit
P73,33,2.929232121,TLD,3,1,right,0.0,2.929232121,implicit
P73,34,2.811163902,TLD,3,1,left,1.0,2.811163902,implicit
P73,35,3.703382969,TLD,3,1,left,0.0,3.703382969,implicit
P73,36,3.040214062,TLD,3,1,right,1.0,3.040214062,implicit
P73,37,3.312880993,TLD,3,1,left,1.0,3.312880993,implicit
P73,38,2.813755035,TLD,3,1,right,1.0,2.813755035,implicit
P73,39,2.364150047,TLD,3,0,right,0.0,2.364150047,implicit
P73,40,3.344326973,TLD,3,1,left,1.0,3.344326973,implicit
P73,41,2.612846136,TLD,3,1,right,1.0,2.612846136,implicit
P73,42,2.447280884,TLD,3,1,left,1.0,2.447280884,implicit
P73,43,2.442170143,TLD,3,0,right,1.0,2.442170143,implicit
P73,44,2.662739038,TLD,3,1,left,1.0,2.662739038,implicit
P73,45,2.160247087,TLD,3,1,right,1.0,2.160247087,implicit
P73,46,2.353219032,TLD,3,1,right,0.0,2.353219032,implicit
P73,47,2.506453991,TLD,3,1,left,1.0,2.506453991,implicit
P73,48,2.719902992,TLD,3,1,left,0.0,2.719902992,implicit
P74,1,3.461090803,TLD,5,1,right,0.0,3.461090803,implicit
P74,2,2.928862095,TLD,5,1,left,1.0,2.928862095,implicit
P74,3,4.635936022,TLD,5,1,left,0.0,,implicit
P74,4,2.742738962,TLD,5,1,right,1.0,2.742738962,implicit
P74,5,2.879087925,TLD,5,1,left,1.0,2.879087925,implicit
P74,6,2.46192503,TLD,5,1,right,1.0,2.46192503,implicit
P74,7,2.726460934,TLD,5,1,left,1.0,2.726460934,implicit
P74,8,2.194728136,TLD,5,1,right,1.0,2.194728136,implicit
P74,9,2.63386488,TLD,5,1,right,0.0,2.63386488,implicit
P74,10,3.178471088,TLD,5,1,left,1.0,3.178471088,implicit
P74,11,2.946756125,TLD,5,1,left,0.0,2.946756125,implicit
P74,12,3.392638922,TLD,5,1,right,1.0,3.392638922,implicit
P74,13,2.899133921,TLD,5,1,left,1.0,2.899133921,implicit
P74,14,2.55745697,TLD,5,1,right,1.0,2.55745697,implicit
P74,15,2.814336061,TLD,5,1,left,1.0,2.814336061,implicit
P74,16,2.977423906,TLD,5,1,right,1.0,2.977423906,implicit
P74,17,3.035720825,TLD,5,1,right,0.0,3.035720825,implicit
P74,18,3.044197083,TLD,5,1,left,1.0,3.044197083,implicit
P74,19,3.068778038,TLD,5,1,left,0.0,3.068778038,implicit
P74,20,2.729822874,TLD,5,1,right,1.0,2.729822874,implicit
P74,21,2.849272013,TLD,5,1,right,0.0,2.849272013,implicit
P74,22,2.911586046,TLD,5,1,left,1.0,2.911586046,implicit
P74,23,2.544141054,TLD,5,1,right,1.0,2.544141054,implicit
P74,24,2.682399035,TLD,5,1,left,1.0,2.682399035,implicit
P74,25,2.82901597,TLD,5,1,right,0.0,2.82901597,implicit
P74,26,2.814815044,TLD,5,1,left,1.0,2.814815044,implicit
P74,27,2.623929024,TLD,5,1,right,1.0,2.623929024,implicit
P74,28,2.416977882,TLD,5,1,right,0.0,2.416977882,implicit
P74,29,2.912378073,TLD,5,1,left,1.0,2.912378073,implicit
P74,30,3.269909143,TLD,5,1,left,0.0,3.269909143,implicit
P74,31,2.578464985,TLD,5,1,right,1.0,2.578464985,implicit
P74,32,2.946228981,TLD,5,1,left,1.0,2.946228981,implicit
P74,33,2.36350894,TLD,5,1,right,1.0,2.36350894,implicit
P74,34,2.494837999,TLD,5,1,left,1.0,2.494837999,implicit
P74,35,3.368786812,TLD,5,1,left,0.0,3.368786812,implicit
P74,36,2.493818998,TLD,5,1,right,1.0,2.493818998,implicit
P74,37,3.030921936,TLD,5,1,left,1.0,3.030921936,implicit
P74,38,2.82196188,TLD,5,1,right,1.0,2.82196188,implicit
P74,39,2.828751087,TLD,5,1,left,1.0,2.828751087,implicit
P74,40,3.071219921,TLD,5,1,left,0.0,3.071219921,implicit
P74,41,2.873179913,TLD,5,1,right,1.0,2.873179913,implicit
P74,42,3.134021044,TLD,5,1,right,0.0,3.134021044,implicit
P74,43,3.417670012,TLD,5,1,right,0.0,3.417670012,implicit
P74,44,4.326655149,TLD,5,1,left,1.0,,implicit
P74,45,3.58445096,TLD,5,1,left,0.0,3.58445096,implicit
P74,46,2.896042109,TLD,5,1,right,1.0,2.896042109,implicit
P74,47,3.213179111,TLD,5,1,left,1.0,3.213179111,implicit
P74,48,2.963027,TLD,5,1,right,1.0,2.963027,implicit
P75,1,2.945286989,DLD,2,1,left,0.0,2.945286989,implicit
P75,2,2.478788853,DLD,2,1,right,1.0,2.478788853,implicit
P75,3,2.613111973,DLD,2,1,left,1.0,2.613111973,implicit
P75,4,2.838310957,DLD,2,1,left,0.0,2.838310957,implicit
P75,5,2.258605003,DLD,2,1,right,1.0,2.258605003,implicit
P75,6,2.384722948,DLD,2,1,right,0.0,2.384722948,implicit
P75,7,2.135338068,DLD,2,1,right,0.0,2.135338068,implicit
P75,8,2.878966093,DLD,2,1,left,1.0,2.878966093,implicit
P75,9,2.517843962,DLD,2,0,left,0.0,2.517843962,implicit
P75,10,2.892741919,DLD,2,1,right,1.0,2.892741919,implicit
P75,11,2.796254158,DLD,2,1,left,1.0,2.796254158,implicit
P75,12,2.262388945,DLD,2,1,right,1.0,2.262388945,implicit
P75,13,2.62706399,DLD,2,1,left,1.0,2.62706399,implicit
P75,14,2.146306992,DLD,2,1,right,1.0,2.146306992,implicit
P75,15,2.716287136,DLD,2,1,right,0.0,2.716287136,implicit
P75,16,2.628740072,DLD,2,1,left,1.0,2.628740072,implicit
P75,17,2.24403882,DLD,2,1,right,1.0,2.24403882,implicit
P75,18,2.430799961,DLD,2,1,left,1.0,2.430799961,implicit
P75,19,3.036797047,DLD,2,1,left,0.0,3.036797047,implicit
P75,20,2.396146059,DLD,2,1,right,1.0,2.396146059,implicit
P75,21,2.576681137,DLD,2,1,left,1.0,2.576681137,implicit
P75,22,2.49730587,DLD,2,1,right,1.0,2.49730587,implicit
P75,23,2.582409859,DLD,2,1,right,0.0,2.582409859,implicit
P75,24,2.59671998,DLD,2,1,left,1.0,2.59671998,implicit
P75,25,2.383049011,DLD,2,1,right,0.0,2.383049011,implicit
P75,26,2.745565891,DLD,2,1,left,1.0,2.745565891,implicit
P75,27,2.204099894,DLD,2,1,right,1.0,2.204099894,implicit
P75,28,2.3828578,DLD,2,1,right,0.0,2.3828578,implicit
P75,29,2.545271873,DLD,2,1,left,1.0,2.545271873,implicit
P75,30,2.835026979,DLD,2,1,left,0.0,2.835026979,implicit
P75,31,2.305914879,DLD,2,1,right,1.0,2.305914879,implicit
P75,32,2.778525114,DLD,2,1,left,1.0,2.778525114,implicit
P75,33,2.414962053,DLD,2,1,right,1.0,2.414962053,implicit
P75,34,2.610918999,DLD,2,1,left,1.0,2.610918999,implicit
P75,35,2.935508013,DLD,2,1,left,0.0,2.935508013,implicit
P75,36,2.476854086,DLD,2,1,right,1.0,2.476854086,implicit
P75,37,2.385684013,DLD,2,1,right,0.0,2.385684013,implicit
P75,38,2.725665808,DLD,2,1,left,1.0,2.725665808,implicit
P75,39,2.969580889,DLD,2,1,left,0.0,2.969580889,implicit
P75,40,2.643836021,DLD,2,1,right,1.0,2.643836021,implicit
P75,41,2.781634092,DLD,2,1,left,1.0,2.781634092,implicit
P75,42,2.159313917,DLD,2,1,right,1.0,2.159313917,implicit
P75,43,2.729207039,DLD,2,1,left,1.0,2.729207039,implicit
P75,44,2.446070194,DLD,2,1,right,1.0,2.446070194,implicit
P75,45,2.534554958,DLD,2,1,right,0.0,2.534554958,implicit
P75,46,2.62705493,DLD,2,1,left,1.0,2.62705493,implicit
P75,47,2.551810026,DLD,2,1,left,0.0,2.551810026,implicit
P75,48,2.511090994,DLD,2,1,right,1.0,2.511090994,implicit
P77,1,1.903270006,TLD,4,0,right,0.0,1.903270006,implicit
P77,2,3.363105059,TLD,4,1,left,1.0,3.363105059,implicit
P77,3,2.494501114,TLD,4,1,right,1.0,2.494501114,implicit
P77,4,2.517280102,TLD,4,1,right,0.0,2.517280102,implicit
P77,5,2.627264023,TLD,4,1,left,1.0,2.627264023,implicit
P77,6,2.871284008,TLD,4,1,left,0.0,2.871284008,implicit
P77,7,2.26327014,TLD,4,1,right,1.0,2.26327014,implicit
P77,8,2.462368011,TLD,4,1,left,1.0,2.462368011,implicit
P77,9,2.329578877,TLD,4,1,right,1.0,2.329578877,implicit
P77,10,2.497956038,TLD,4,1,left,1.0,2.497956038,implicit
P77,11,2.952708006,TLD,4,1,left,0.0,2.952708006,implicit
P77,12,2.411342144,TLD,4,1,right,1.0,2.411342144,implicit
P77,13,2.586068153,TLD,4,1,right,0.0,2.586068153,implicit
P77,14,2.361808062,TLD,4,1,left,1.0,2.361808062,implicit
P77,15,2.816789865,TLD,4,1,left,0.0,2.816789865,implicit
P77,16,2.326591015,TLD,4,1,right,1.0,2.326591015,implicit
P77,17,2.465867996,TLD,4,1,left,1.0,2.465867996,implicit
P77,18,2.078343153,TLD,4,1,right,1.0,2.078343153,implicit
P77,19,2.195853949,TLD,4,1,left,1.0,2.195853949,implicit
P77,20,2.163627863,TLD,4,1,right,1.0,2.163627863,implicit
P77,21,2.628118038,TLD,4,1,left,1.0,2.628118038,implicit
P77,22,2.754069805,TLD,4,1,left,0.0,2.754069805,implicit
P77,23,2.660962105,TLD,4,1,right,1.0,2.660962105,implicit
P77,24,2.517832041,TLD,4,1,right,0.0,2.517832041,implicit
P77,25,3.1277349,TLD,4,1,left,0.0,3.1277349,implicit
P77,26,3.344164133,TLD,4,1,right,1.0,3.344164133,implicit
P77,27,3.747268915,TLD,4,1,left,1.0,3.747268915,implicit
P77,28,2.359001875,TLD,4,1,right,1.0,2.359001875,implicit
P77,29,2.23543191,TLD,4,1,right,0.0,2.23543191,implicit
P77,30,0.5102519989,TLD,4,0,left,1.0,0.5102519989,implicit
P77,31,0.5200028419,TLD,4,0,left,0.0,0.5200028419,implicit
P77,32,2.481631041,TLD,4,1,right,1.0,2.481631041,implicit
P77,33,2.815294981,TLD,4,1,right,0.0,2.815294981,implicit
P77,34,2.623300791,TLD,4,1,left,1.0,2.623300791,implicit
P77,35,2.545763969,TLD,4,1,right,1.0,2.545763969,implicit
P77,36,2.547738075,TLD,4,1,left,1.0,2.547738075,implicit
P77,37,3.094182968,TLD,4,1,right,1.0,3.094182968,implicit
P77,38,0.5135979652,TLD,4,0,left,1.0,0.5135979652,implicit
P77,39,3.186022997,TLD,4,1,left,0.0,3.186022997,implicit
P77,40,2.146643877,TLD,4,1,right,1.0,2.146643877,implicit
P77,41,2.315631866,TLD,4,1,left,1.0,2.315631866,implicit
P77,42,2.774641991,TLD,4,1,right,1.0,2.774641991,implicit
P77,43,2.395876884,TLD,4,1,left,1.0,2.395876884,implicit
P77,44,0.513422966,TLD,4,0,right,1.0,0.513422966,implicit
P77,45,3.254016876,TLD,4,1,right,0.0,3.254016876,implicit
P77,46,0.5107190609,TLD,4,0,left,1.0,0.5107190609,implicit
P77,47,3.100570917,TLD,4,1,left,0.0,3.100570917,implicit
P77,48,0.5123288631,TLD,4,0,right,1.0,0.5123288631,implicit
P78,1,1.68456316,DLD,4,0,right,0.0,1.68456316,implicit
P78,2,2.644894123,DLD,4,0,left,1.0,2.644894123,implicit
P78,3,4.562871933,DLD,4,1,right,1.0,4.562871933,implicit
P78,4,2.480551958,DLD,4,1,right,0.0,2.480551958,implicit
P78,5,2.212161064,DLD,4,0,left,1.0,2.212161064,implicit
P78,6,2.266985893,DLD,4,1,left,0.0,2.266985893,implicit
P78,7,2.661972046,DLD,4,1,right,1.0,2.661972046,implicit
P78,8,3.110920191,DLD,4,1,left,1.0,3.110920191,implicit
P78,9,3.146921158,DLD,4,1,right,1.0,3.146921158,implicit
P78,10,2.511186838,DLD,4,0,left,1.0,2.511186838,implicit
P78,11,2.568237066,DLD,4,1,left,0.0,2.568237066,implicit
P78,12,3.145549059,DLD,4,1,right,1.0,3.145549059,implicit
P78,13,2.826481104,DLD,4,1,right,0.0,2.826481104,implicit
P78,14,5.175426006,DLD,4,0,left,1.0,5.175426006,implicit
P78,15,2.604969025,DLD,4,0,left,0.0,2.604969025,implicit
P78,16,3.888596058,DLD,4,1,right,1.0,3.888596058,implicit
P78,17,4.662439108,DLD,4,1,left,1.0,4.662439108,implicit
P78,18,3.196087122,DLD,4,1,right,1.0,3.196087122,implicit
P78,19,2.591394901,DLD,4,1,left,1.0,2.591394901,implicit
P78,20,2.209462881,DLD,4,1,right,1.0,2.209462881,implicit
P78,21,3.13292408,DLD,4,1,left,1.0,3.13292408,implicit
P78,22,2.731920004,DLD,4,1,left,0.0,2.731920004,implicit
P78,23,2.910032034,DLD,4,0,right,1.0,2.910032034,implicit
P78,24,8.214996099,DLD,4,0,right,0.0,,implicit
P78,25,2.667283058,DLD,4,1,left,0.0,2.667283058,implicit
P78,26,1.681349039,DLD,4,0,right,1.0,1.681349039,implicit
P78,27,1.510385036,DLD,4,0,left,1.0,1.510385036,implicit
P78,28,0.8287191391,DLD,4,1,right,1.0,0.8287191391,implicit
P78,29,3.580914974,DLD,4,1,right,0.0,3.580914974,implicit
P78,30,2.043859959,DLD,4,0,left,1.0,2.043859959,implicit
P78,31,2.787908077,DLD,4,1,left,0.0,2.787908077,implicit
P78,32,2.391763926,DLD,4,1,right,1.0,2.391763926,implicit
P78,33,1.584113836,DLD,4,0,right,0.0,1.584113836,implicit
P78,34,2.743822098,DLD,4,1,left,1.0,2.743822098,implicit
P78,35,0.51146698,DLD,4,0,right,1.0,0.51146698,implicit
P78,36,3.830655098,DLD,4,0,left,1.0,3.830655098,implicit
P78,37,0.5125219822,DLD,4,1,right,1.0,0.5125219822,implicit
P78,38,4.579115152,DLD,4,1,left,1.0,4.579115152,implicit
P78,39,3.321346045,DLD,4,0,left,0.0,3.321346045,implicit
P78,40,3.943002224,DLD,4,1,right,1.0,3.943002224,implicit
P78,41,3.711453915,DLD,4,1,left,1.0,3.711453915,implicit
P78,42,0.7308139801,DLD,4,0,right,1.0,0.7308139801,implicit
P78,43,3.014358044,DLD,4,1,left,1.0,3.014358044,implicit
P78,44,2.774062157,DLD,4,1,right,1.0,2.774062157,implicit
P78,45,2.299948931,DLD,4,0,right,0.0,2.299948931,implicit
P78,46,1.97765398,DLD,4,1,left,1.0,1.97765398,implicit
P78,47,0.7891170979,DLD,4,1,left,0.0,0.7891170979,implicit
P78,48,0.5555579662,DLD,4,0,right,1.0,0.5555579662,implicit
P80,1,3.755306959,DLD,5,1,right,0.0,3.755306959,implicit
P80,2,3.725916147,DLD,5,1,left,1.0,3.725916147,implicit
P80,3,4.319155931,DLD,5,1,left,0.0,,implicit
P80,4,3.089892149,DLD,5,1,right,1.0,3.089892149,implicit
P80,5,3.345604897,DLD,5,1,left,1.0,3.345604897,implicit
P80,6,2.626595974,DLD,5,1,right,1.0,2.626595974,implicit
P80,7,3.245424032,DLD,5,1,left,1.0,3.245424032,implicit
P80,8,2.330005884,DLD,5,1,right,1.0,2.330005884,implicit
P80,9,2.13334012,DLD,5,1,right,0.0,2.13334012,implicit
P80,10,0.5114781857,DLD,5,0,left,1.0,,implicit
P80,11,2.620392084,DLD,5,1,left,0.0,2.620392084,implicit
P80,12,0.5233359337,DLD,5,0,right,1.0,,implicit
P80,13,2.343221188,DLD,5,1,left,1.0,2.343221188,implicit
P80,14,2.379320145,DLD,5,1,right,1.0,2.379320145,implicit
P80,15,2.329030991,DLD,5,1,left,1.0,2.329030991,implicit
P80,16,1.980993986,DLD,5,1,right,1.0,1.980993986,implicit
P80,17,2.230494976,DLD,5,1,right,0.0,2.230494976,implicit
P80,18,2.586913109,DLD,5,1,left,1.0,2.586913109,implicit
P80,19,2.602949858,DLD,5,1,left,0.0,2.602949858,implicit
P80,20,2.079754114,DLD,5,0,right,1.0,2.079754114,implicit
P80,21,0.5169980526,DLD,5,1,right,0.0,,implicit
P80,22,2.892136812,DLD,5,1,left,1.0,2.892136812,implicit
P80,23,2.812590122,DLD,5,1,right,1.0,2.812590122,implicit
P80,24,3.212061167,DLD,5,0,left,1.0,3.212061167,implicit
P80,25,2.741353035,DLD,5,1,right,0.0,2.741353035,implicit
P80,26,2.897001982,DLD,5,1,left,1.0,2.897001982,implicit
P80,27,2.390925884,DLD,5,1,right,1.0,2.390925884,implicit
P80,28,2.533488989,DLD,5,1,right,0.0,2.533488989,implicit
P80,29,2.826880932,DLD,5,1,left,1.0,2.826880932,implicit
P80,30,2.752426863,DLD,5,1,left,0.0,2.752426863,implicit
P80,31,2.858952045,DLD,5,1,right,1.0,2.858952045,implicit
P80,32,2.495824814,DLD,5,1,left,1.0,2.495824814,implicit
P80,33,2.429649115,DLD,5,1,right,1.0,2.429649115,implicit
P80,34,2.579869986,DLD,5,1,left,1.0,2.579869986,implicit
P80,35,2.434561014,DLD,5,1,left,0.0,2.434561014,implicit
P80,36,2.427917004,DLD,5,1,right,1.0,2.427917004,implicit
P80,37,2.379045963,DLD,5,1,left,1.0,2.379045963,implicit
P80,38,2.146092176,DLD,5,0,right,1.0,2.146092176,implicit
P80,39,0.5091900826,DLD,5,0,left,1.0,,implicit
P80,40,2.903410912,DLD,5,1,left,0.0,2.903410912,implicit
P80,41,2.62670207,DLD,5,1,right,1.0,2.62670207,implicit
P80,42,2.968170166,DLD,5,1,right,0.0,2.968170166,implicit
P80,43,2.880331039,DLD,5,1,right,0.0,2.880331039,implicit
P80,44,2.560548782,DLD,5,1,left,1.0,2.560548782,implicit
P80,45,2.535712957,DLD,5,1,left,0.0,2.535712957,implicit
P80,46,2.661642075,DLD,5,1,right,1.0,2.661642075,implicit
P80,47,2.577348948,DLD,5,1,left,1.0,2.577348948,implicit
P80,48,2.612514019,DLD,5,1,right,1.0,2.612514019,implicit
P83,1,4.563498974,DLD,6,1,right,0.0,,implicit
P83,2,1.964364052,DLD,6,1,left,1.0,1.964364052,implicit
P83,3,1.452636003,DLD,6,1,left,0.0,1.452636003,implicit
P83,4,8.560878038,DLD,6,1,right,1.0,,implicit
P83,5,4.362098932,DLD,6,1,left,1.0,,implicit
P83,6,4.572140932,DLD,6,1,right,1.0,,implicit
P83,7,4.410798073,DLD,6,1,left,1.0,,implicit
P83,8,6.179781914,DLD,6,1,right,1.0,,implicit
P83,9,4.198373079,DLD,6,1,right,0.0,,implicit
P83,10,4.560853004,DLD,6,1,left,1.0,,implicit
P83,11,4.717328072,DLD,6,1,left,0.0,,implicit
P83,12,4.062884092,DLD,6,1,right,1.0,,implicit
P83,13,3.616822958,DLD,6,1,right,0.0,3.616822958,implicit
P83,14,3.29390502,DLD,6,1,left,1.0,3.29390502,implicit
P83,15,4.462367058,DLD,6,1,right,1.0,,implicit
P83,16,3.233599901,DLD,6,1,right,0.0,3.233599901,implicit
P83,17,3.509642124,DLD,6,1,left,1.0,3.509642124,implicit
P83,18,4.852313042,DLD,6,1,left,0.0,,implicit
P83,19,0.685270071,DLD,6,1,left,0.0,,implicit
P83,20,4.377765179,DLD,6,1,right,1.0,,implicit
P83,21,3.579566956,DLD,6,1,left,1.0,3.579566956,implicit
P83,22,2.662187099,DLD,6,1,right,1.0,2.662187099,implicit
P83,23,4.468191862,DLD,6,1,right,0.0,,implicit
P83,24,4.008347034,DLD,6,1,left,1.0,,implicit
P83,25,2.322481871,DLD,6,1,left,0.0,2.322481871,implicit
P83,26,2.811449051,DLD,6,1,right,1.0,2.811449051,implicit
P83,27,2.794332981,DLD,6,1,right,0.0,2.794332981,implicit
P83,28,3.042864084,DLD,6,0,left,1.0,3.042864084,implicit
P83,29,2.781183958,DLD,6,1,right,1.0,2.781183958,implicit
P83,30,2.641326904,DLD,6,1,left,1.0,2.641326904,implicit
P83,31,3.212939024,DLD,6,1,right,1.0,3.212939024,implicit
P83,32,2.563153982,DLD,6,1,left,1.0,2.563153982,implicit
P83,33,3.337268114,DLD,6,1,left,0.0,3.337268114,implicit
P83,34,2.939790964,DLD,6,1,right,1.0,2.939790964,implicit
P83,35,3.311215162,DLD,6,1,left,1.0,3.311215162,implicit
P83,36,2.580315828,DLD,6,1,right,1.0,2.580315828,implicit
P83,37,2.64095521,DLD,6,1,left,1.0,2.64095521,implicit
P83,38,2.309241056,DLD,6,1,right,1.0,2.309241056,implicit
P83,39,2.661952019,DLD,6,1,left,1.0,2.661952019,implicit
P83,40,3.054058075,DLD,6,1,left,0.0,3.054058075,implicit
P83,41,2.492811203,DLD,6,1,right,1.0,2.492811203,implicit
P83,42,2.469398975,DLD,6,1,right,0.0,2.469398975,implicit
P83,43,2.282938004,DLD,6,1,right,0.0,2.282938004,implicit
P83,44,3.162241936,DLD,6,1,left,1.0,3.162241936,implicit
P83,45,2.493602991,DLD,6,1,right,1.0,2.493602991,implicit
P83,46,2.563297033,DLD,6,1,left,1.0,2.563297033,implicit
P83,47,2.620265961,DLD,6,0,left,0.0,2.620265961,implicit
P83,48,2.462126017,DLD,6,0,right,1.0,2.462126017,implicit
P84,1,3.219098091,DLD,1,1,left,0.0,3.219098091,implicit
P84,2,2.210625887,DLD,1,1,right,1.0,2.210625887,implicit
P84,3,2.21396184,DLD,1,1,right,0.0,2.21396184,implicit
P84,4,2.876394033,DLD,1,1,left,1.0,2.876394033,implicit
P84,5,2.669572115,DLD,1,1,left,0.0,2.669572115,implicit
P84,6,2.175522804,DLD,1,1,right,1.0,2.175522804,implicit
P84,7,2.134783983,DLD,1,1,right,0.0,2.134783983,implicit
P84,8,2.425032854,DLD,1,0,left,1.0,2.425032854,implicit
P84,9,0.5175030231,DLD,1,1,left,0.0,,implicit
P84,10,2.31100297,DLD,1,0,right,1.0,2.31100297,implicit
P84,11,0.5139210224,DLD,1,0,left,1.0,,implicit
P84,12,2.16121006,DLD,1,1,right,1.0,2.16121006,implicit
P84,13,2.06846714,DLD,1,1,right,0.0,2.06846714,implicit
P84,14,2.228458881,DLD,1,0,left,1.0,2.228458881,implicit
P84,15,0.9597508907,DLD,1,0,right,1.0,,implicit
P84,16,3.300476074,DLD,1,1,right,0.0,3.300476074,implicit
P84,17,2.611243963,DLD,1,1,left,1.0,2.611243963,implicit
P84,18,2.769967794,DLD,1,1,left,0.0,2.769967794,implicit
P84,19,2.11045599,DLD,1,0,right,1.0,2.11045599,implicit
P84,20,0.5139279366,DLD,1,0,left,1.0,,implicit
P84,21,2.111443996,DLD,1,1,right,1.0,2.111443996,implicit
P84,22,1.26287508,DLD,1,0,left,1.0,1.26287508,implicit
P84,23,0.8873500824,DLD,1,0,left,0.0,,implicit
P84,24,2.245389938,DLD,1,1,right,1.0,2.245389938,implicit
P84,25,2.97360301,DLD,1,1,left,0.0,2.97360301,implicit
P84,26,2.073662043,DLD,1,1,right,1.0,2.073662043,implicit
P84,27,2.683425903,DLD,1,1,left,1.0,2.683425903,implicit
P84,28,2.448966026,DLD,1,1,left,0.0,2.448966026,implicit
P84,29,1.963397026,DLD,1,1,right,1.0,1.963397026,implicit
P84,30,1.649750948,DLD,1,0,right,0.0,1.649750948,implicit
P84,31,0.6017119884,DLD,1,1,right,0.0,,implicit
P84,32,0.5115909576,DLD,1,0,left,1.0,,implicit
P84,33,0.5203769207,DLD,1,0,left,0.0,,implicit
P84,34,1.597172022,DLD,1,0,right,1.0,1.597172022,implicit
P84,35,0.5453240871,DLD,1,0,left,1.0,,implicit
P84,36,0.5223121643,DLD,1,1,right,1.0,,implicit
P84,37,2.328365088,DLD,1,1,left,1.0,2.328365088,implicit
P84,38,2.145999193,DLD,1,1,right,1.0,2.145999193,implicit
P84,39,2.017935991,DLD,1,1,right,0.0,2.017935991,implicit
P84,40,2.512230873,DLD,1,1,left,1.0,2.512230873,implicit
P84,41,2.075762987,DLD,1,1,right,1.0,2.075762987,implicit
P84,42,2.524320126,DLD,1,1,left,1.0,2.524320126,implicit
P84,43,2.670425177,DLD,1,0,left,0.0,2.670425177,implicit
P84,44,2.277908087,DLD,1,0,right,1.0,2.277908087,implicit
P84,45,0.5149362087,DLD,1,0,left,1.0,,implicit
P84,46,2.476978779,DLD,1,1,right,1.0,2.476978779,implicit
P84,47,2.230935097,DLD,1,1,right,0.0,2.230935097,implicit
P84,48,2.510334969,DLD,1,0,left,1.0,2.510334969,implicit
P86,1,1.24704504,DLD,3,1,left,0.0,1.24704504,implicit
P86,2,1.075897932,DLD,3,0,right,1.0,,implicit
P86,3,3.096007824,DLD,3,1,left,1.0,3.096007824,implicit
P86,4,1.97743392,DLD,3,1,right,1.0,1.97743392,implicit
P86,5,2.485644817,DLD,3,1,right,0.0,2.485644817,implicit
P86,6,2.244817019,DLD,3,1,left,1.0,2.244817019,implicit
P86,7,2.735911131,DLD,3,1,left,0.0,2.735911131,implicit
P86,8,2.24240303,DLD,3,1,right,1.0,2.24240303,implicit
P86,9,2.481808186,DLD,3,1,left,1.0,2.481808186,implicit
P86,10,2.934139013,DLD,3,1,left,0.0,2.934139013,implicit
P86,11,2.263563156,DLD,3,1,right,1.0,2.263563156,implicit
P86,12,2.599455833,DLD,3,1,right,0.0,2.599455833,implicit
P86,13,2.186996937,DLD,3,1,right,0.0,2.186996937,implicit
P86,14,2.227816105,DLD,3,1,left,1.0,2.227816105,implicit
P86,15,2.619033098,DLD,3,1,left,0.0,2.619033098,implicit
P86,16,2.394594908,DLD,3,1,right,1.0,2.394594908,implicit
P86,17,2.581795931,DLD,3,1,left,1.0,2.581795931,implicit
P86,18,2.159125805,DLD,3,1,right,1.0,2.159125805,implicit
P86,19,2.099097967,DLD,3,1,right,0.0,2.099097967,implicit
P86,20,2.459496021,DLD,3,1,left,1.0,2.459496021,implicit
P86,21,3.018866062,DLD,3,1,left,0.0,3.018866062,implicit
P86,22,0.5140340328,DLD,3,0,right,1.0,,implicit
P86,23,0.5104088783,DLD,3,1,left,1.0,,implicit
P86,24,2.392051935,DLD,3,1,right,1.0,2.392051935,implicit
P86,25,2.289797783,DLD,3,1,right,0.0,2.289797783,implicit
P86,26,2.527436972,DLD,3,1,left,1.0,2.527436972,implicit
P86,27,1.978291035,DLD,3,1,right,1.0,1.978291035,implicit
P86,28,3.22951293,DLD,3,1,left,1.0,3.22951293,implicit
P86,29,6.151594877,DLD,3,1,left,0.0,,implicit
P86,30,2.629078865,DLD,3,1,right,1.0,2.629078865,implicit
P86,31,3.147028923,DLD,3,1,left,1.0,3.147028923,implicit
P86,32,2.722196817,DLD,3,1,right,1.0,2.722196817,implicit
P86,33,3.234941006,DLD,3,1,right,0.0,3.234941006,implicit
P86,34,2.528019905,DLD,3,1,left,1.0,2.528019905,implicit
P86,35,3.121643066,DLD,3,1,left,0.0,3.121643066,implicit
P86,36,2.094000816,DLD,3,1,right,1.0,2.094000816,implicit
P86,37,2.596233845,DLD,3,1,left,1.0,2.596233845,implicit
P86,38,1.213113785,DLD,3,0,right,1.0,1.213113785,implicit
P86,39,2.486131907,DLD,3,1,right,0.0,2.486131907,implicit
P86,40,2.426979065,DLD,3,1,left,1.0,2.426979065,implicit
P86,41,1.764995098,DLD,3,0,right,1.0,1.764995098,implicit
P86,42,0.5126988888,DLD,3,1,left,1.0,,implicit
P86,43,0.0150539875,DLD,3,1,right,1.0,,implicit
P86,44,3.27502799,DLD,3,1,left,1.0,3.27502799,implicit
P86,45,2.846553087,DLD,3,1,right,1.0,2.846553087,implicit
P86,46,3.367955923,DLD,3,1,right,0.0,3.367955923,implicit
P86,47,3.126580954,DLD,3,1,left,1.0,3.126580954,implicit
P86,48,3.388128996,DLD,3,1,left,0.0,3.388128996,implicit
P87,1,8.644579887,DLD,3,1,left,0.0,,implicit
P87,2,2.240820169,DLD,3,1,right,1.0,2.240820169,implicit
P87,3,3.741317987,DLD,3,0,left,1.0,3.741317987,implicit
P87,4,3.228277922,DLD,3,0,right,1.0,3.228277922,implicit
P87,5,2.86597681,DLD,3,1,right,0.0,2.86597681,implicit
P87,6,4.47730422,DLD,3,0,left,1.0,,implicit
P87,7,2.801099062,DLD,3,0,left,0.0,2.801099062,implicit
P87,8,3.663889885,DLD,3,1,right,1.0,3.663889885,implicit
P87,9,3.041563034,DLD,3,1,left,1.0,3.041563034,implicit
P87,10,3.519981861,DLD,3,0,left,0.0,3.519981861,implicit
P87,11,3.274387121,DLD,3,1,right,1.0,3.274387121,implicit
P87,12,2.569091082,DLD,3,0,right,0.0,2.569091082,implicit
P87,13,2.851406097,DLD,3,1,right,0.0,2.851406097,implicit
P87,14,19.50386596,DLD,3,1,left,1.0,,implicit
P87,15,3.616180897,DLD,3,1,left,0.0,3.616180897,implicit
P87,16,4.559101105,DLD,3,1,right,1.0,,implicit
P87,17,3.693621874,DLD,3,1,left,1.0,3.693621874,implicit
P87,18,3.673578978,DLD,3,1,right,1.0,3.673578978,implicit
P87,19,4.032029867,DLD,3,1,right,0.0,,implicit
P87,20,5.378031969,DLD,3,1,left,1.0,,implicit
P87,21,3.051106215,DLD,3,1,left,0.0,3.051106215,implicit
P87,22,2.791172028,DLD,3,1,right,1.0,2.791172028,implicit
P87,23,2.528784037,DLD,3,1,left,1.0,2.528784037,implicit
P87,24,2.743057013,DLD,3,1,right,1.0,2.743057013,implicit
P87,25,2.658210993,DLD,3,1,right,0.0,2.658210993,implicit
P87,26,3.587660074,DLD,3,1,left,1.0,3.587660074,implicit
P87,27,0.02697682381,DLD,3,0,right,1.0,,implicit
P87,28,4.019286871,DLD,3,1,left,1.0,,implicit
P87,29,3.569428921,DLD,3,1,left,0.0,3.569428921,implicit
P87,30,2.492309093,DLD,3,1,right,1.0,2.492309093,implicit
P87,31,1.011045933,DLD,3,0,left,1.0,,implicit
P87,32,0.7574458122,DLD,3,1,right,1.0,,implicit
P87,33,2.618160963,DLD,3,1,right,0.0,2.618160963,implicit
P87,34,3.310838938,DLD,3,1,left,1.0,3.310838938,implicit
P87,35,4.515432835,DLD,3,1,left,0.0,,implicit
P87,36,2.660357952,DLD,3,1,right,1.0,2.660357952,implicit
P87,37,4.642470121,DLD,3,1,left,1.0,,implicit
P87,38,3.157936096,DLD,3,1,right,1.0,3.157936096,implicit
P87,39,2.29927206,DLD,3,0,right,0.0,2.29927206,implicit
P87,40,1.278172016,DLD,3,1,left,1.0,1.278172016,implicit
P87,41,0.6243078709,DLD,3,0,right,1.0,,implicit
P87,42,7.027517796,DLD,3,1,left,1.0,,implicit
P87,43,1.973814011,DLD,3,1,right,1.0,1.973814011,implicit
P87,44,1.296329021,DLD,3,1,left,1.0,1.296329021,implicit
P87,45,0.7436928749,DLD,3,1,right,1.0,,implicit
P87,46,5.94888711,DLD,3,1,right,0.0,,implicit
P87,47,2.576789856,DLD,3,1,left,1.0,2.576789856,implicit
P87,48,4.052666187,DLD,3,1,left,0.0,,implicit
P90,1,2.416663885,DLD,2,1,left,0.0,2.416663885,implicit
P90,2,4.594188929,DLD,2,1,right,1.0,,implicit
P90,3,3.825743914,DLD,2,1,left,1.0,3.825743914,implicit
P90,4,0.5184881687,DLD,2,1,left,0.0,,implicit
P90,5,0.5114619732,DLD,2,0,right,1.0,,implicit
P90,6,4.266039133,DLD,2,1,right,0.0,,implicit
P90,7,3.346583843,DLD,2,1,right,0.0,3.346583843,implicit
P90,8,2.926842928,DLD,2,1,left,1.0,2.926842928,implicit
P90,9,2.652749777,DLD,2,1,left,0.0,2.652749777,implicit
P90,10,2.279716969,DLD,2,1,right,1.0,2.279716969,implicit
P90,11,2.728887081,DLD,2,1,left,1.0,2.728887081,implicit
P90,12,2.579446793,DLD,2,1,right,1.0,2.579446793,implicit
P90,13,3.178359032,DLD,2,1,left,1.0,3.178359032,implicit
P90,14,2.443239927,DLD,2,1,right,1.0,2.443239927,implicit
P90,15,3.116535902,DLD,2,1,right,0.0,3.116535902,implicit
P90,16,2.792757988,DLD,2,1,left,1.0,2.792757988,implicit
P90,17,2.613007069,DLD,2,1,right,1.0,2.613007069,implicit
P90,18,2.677247047,DLD,2,1,left,1.0,2.677247047,implicit
P90,19,3.568785906,DLD,2,1,left,0.0,3.568785906,implicit
P90,20,3.460304976,DLD,2,1,right,1.0,3.460304976,implicit
P90,21,3.011184931,DLD,2,1,left,1.0,3.011184931,implicit
P90,22,2.396863937,DLD,2,1,right,1.0,2.396863937,implicit
P90,23,2.499593973,DLD,2,1,right,0.0,2.499593973,implicit
P90,24,2.428658962,DLD,2,1,left,1.0,2.428658962,implicit
P90,25,2.603954077,DLD,2,1,right,0.0,2.603954077,implicit
P90,26,2.662554026,DLD,2,1,left,1.0,2.662554026,implicit
P90,27,3.328123808,DLD,2,1,right,1.0,3.328123808,implicit
P90,28,2.452205181,DLD,2,1,right,0.0,2.452205181,implicit
P90,29,0.5114798546,DLD,2,0,left,1.0,,implicit
P90,30,0.5202739239,DLD,2,0,left,0.0,,implicit
P90,31,3.546480179,DLD,2,1,right,1.0,3.546480179,implicit
P90,32,3.37986207,DLD,2,1,left,1.0,3.37986207,implicit
P90,33,2.68742609,DLD,2,1,right,1.0,2.68742609,implicit
P90,34,6.027530909,DLD,2,1,left,1.0,,implicit
P90,35,2.803179026,DLD,2,1,left,0.0,2.803179026,implicit
P90,36,3.738300085,DLD,2,1,right,1.0,3.738300085,implicit
P90,37,2.716800928,DLD,2,1,right,0.0,2.716800928,implicit
P90,38,5.078524113,DLD,2,1,left,1.0,,implicit
P90,39,2.851894856,DLD,2,1,left,0.0,2.851894856,implicit
P90,40,2.192808867,DLD,2,1,right,1.0,2.192808867,implicit
P90,41,3.382115126,DLD,2,1,left,1.0,3.382115126,implicit
P90,42,2.326791048,DLD,2,1,right,1.0,2.326791048,implicit
P90,43,3.296610832,DLD,2,1,left,1.0,3.296610832,implicit
P90,44,0.5118129253,DLD,2,0,right,1.0,,implicit
P90,45,0.5162270069,DLD,2,0,right,0.0,,implicit
P90,46,3.02964592,DLD,2,1,left,1.0,3.02964592,implicit
P90,47,3.064409018,DLD,2,1,left,0.0,3.064409018,implicit
P90,48,3.060149193,DLD,2,1,right,1.0,3.060149193,implicit
P91,1,3.282171011,TLD,5,1,right,0.0,3.282171011,implicit
P91,2,2.859628916,TLD,5,1,left,1.0,2.859628916,implicit
P91,3,2.818776131,TLD,5,1,left,0.0,2.818776131,implicit
P91,4,2.53017807,TLD,5,1,right,1.0,2.53017807,implicit
P91,5,2.529392958,TLD,5,1,left,1.0,2.529392958,implicit
P91,6,2.35512805,TLD,5,1,right,1.0,2.35512805,implicit
P91,7,2.394752026,TLD,5,1,left,1.0,2.394752026,implicit
P91,8,2.297622919,TLD,5,1,right,1.0,2.297622919,implicit
P91,9,2.552293062,TLD,5,0,right,0.0,2.552293062,implicit
P91,10,2.993709087,TLD,5,0,left,1.0,2.993709087,implicit
P91,11,3.151324987,TLD,5,1,left,0.0,3.151324987,implicit
P91,12,2.592935085,TLD,5,1,right,1.0,2.592935085,implicit
P91,13,2.925703049,TLD,5,1,left,1.0,2.925703049,implicit
P91,14,2.779083967,TLD,5,1,right,1.0,2.779083967,implicit
P91,15,2.896923065,TLD,5,1,left,1.0,2.896923065,implicit
P91,16,2.445160866,TLD,5,1,right,1.0,2.445160866,implicit
P91,17,2.548540115,TLD,5,1,right,0.0,2.548540115,implicit
P91,18,2.878279209,TLD,5,1,left,1.0,2.878279209,implicit
P91,19,3.00416398,TLD,5,1,left,0.0,3.00416398,implicit
P91,20,2.655047178,TLD,5,1,right,1.0,2.655047178,implicit
P91,21,2.132081985,TLD,5,1,right,0.0,2.132081985,implicit
P91,22,2.643461943,TLD,5,1,left,1.0,2.643461943,implicit
P91,23,2.549091101,TLD,5,1,right,1.0,2.549091101,implicit
P91,24,3.425966024,TLD,5,1,left,1.0,3.425966024,implicit
P91,25,2.76561594,TLD,5,1,right,0.0,2.76561594,implicit
P91,26,2.662194014,TLD,5,1,left,1.0,2.662194014,implicit
P91,27,2.330881119,TLD,5,1,right,1.0,2.330881119,implicit
P91,28,2.481724024,TLD,5,1,right,0.0,2.481724024,implicit
P91,29,2.56055212,TLD,5,1,left,1.0,2.56055212,implicit
P91,30,2.936231136,TLD,5,1,left,0.0,2.936231136,implicit
P91,31,2.046089888,TLD,5,1,right,1.0,2.046089888,implicit
P91,32,2.611890793,TLD,5,1,left,1.0,2.611890793,implicit
P91,33,2.411407948,TLD,5,1,right,1.0,2.411407948,implicit
P91,34,3.694518089,TLD,5,1,left,1.0,3.694518089,implicit
P91,35,2.904448986,TLD,5,1,left,0.0,2.904448986,implicit
P91,36,2.531244993,TLD,5,1,right,1.0,2.531244993,implicit
P91,37,2.728739023,TLD,5,1,left,1.0,2.728739023,implicit
P91,38,2.463855028,TLD,5,1,right,1.0,2.463855028,implicit
P91,39,2.526740074,TLD,5,1,left,1.0,2.526740074,implicit
P91,40,1.711205959,TLD,5,0,left,0.0,1.711205959,implicit
P91,41,2.643620968,TLD,5,1,right,1.0,2.643620968,implicit
P91,42,2.636192083,TLD,5,1,right,0.0,2.636192083,implicit
P91,43,2.536142111,TLD,5,1,right,0.0,2.536142111,implicit
P91,44,2.926839828,TLD,5,1,left,1.0,2.926839828,implicit
P91,45,2.533390045,TLD,5,1,left,0.0,2.533390045,implicit
P91,46,2.579954863,TLD,5,1,right,1.0,2.579954863,implicit
P91,47,2.861022949,TLD,5,1,left,1.0,2.861022949,implicit
P91,48,2.346979141,TLD,5,1,right,1.0,2.346979141,implicit
P94,1,3.752337217,DLD,4,1,right,0.0,3.752337217,implicit
P94,2,3.029231071,DLD,4,1,left,1.0,3.029231071,implicit
P94,3,3.97875309,DLD,4,1,right,1.0,,implicit
P94,4,2.898603916,DLD,4,1,right,0.0,2.898603916,implicit
P94,5,3.376527071,DLD,4,1,left,1.0,3.376527071,implicit
P94,6,3.066787004,DLD,4,1,left,0.0,3.066787004,implicit
P94,7,2.296535969,DLD,4,1,right,1.0,2.296535969,implicit
P94,8,3.075879812,DLD,4,1,left,1.0,3.075879812,implicit
P94,9,2.193209171,DLD,4,1,right,1.0,2.193209171,implicit
P94,10,3.065003872,DLD,4,1,left,1.0,3.065003872,implicit
P94,11,3.400485039,DLD,4,0,left,0.0,3.400485039,implicit
P94,12,3.227754831,DLD,4,1,right,1.0,3.227754831,implicit
P94,13,5.249346972,DLD,4,1,right,0.0,,implicit
P94,14,3.156993151,DLD,4,1,left,1.0,3.156993151,implicit
P94,15,3.80127883,DLD,4,1,left,0.0,3.80127883,implicit
P94,16,2.762203932,DLD,4,1,right,1.0,2.762203932,implicit
P94,17,3.228311062,DLD,4,0,left,1.0,3.228311062,implicit
P94,18,3.693519831,DLD,4,1,right,1.0,3.693519831,implicit
P94,19,2.830080986,DLD,4,1,left,1.0,2.830080986,implicit
P94,20,6.619575977,DLD,4,1,right,1.0,,implicit
P94,21,5.629585981,DLD,4,1,left,1.0,,implicit
P94,22,3.118115902,DLD,4,0,left,0.0,3.118115902,implicit
P94,23,1.793796778,DLD,4,0,right,1.0,1.793796778,implicit
P94,24,1.067471981,DLD,4,1,right,0.0,,implicit
P94,25,3.289132118,DLD,4,1,left,0.0,3.289132118,implicit
P94,26,3.07792592,DLD,4,1,right,1.0,3.07792592,implicit
P94,27,7.743523836,DLD,4,1,left,1.0,,implicit
P94,28,2.412500858,DLD,4,0,right,1.0,2.412500858,implicit
P94,29,2.952517033,DLD,4,1,right,0.0,2.952517033,implicit
P94,30,2.972814083,DLD,4,1,left,1.0,2.972814083,implicit
P94,31,4.867418051,DLD,4,1,left,0.0,,implicit
P94,32,2.763105869,DLD,4,1,right,1.0,2.763105869,implicit
P94,33,4.461097002,DLD,4,1,right,0.0,,implicit
P94,34,4.544063091,DLD,4,1,left,1.0,,implicit
P94,35,6.52303791,DLD,4,1,right,1.0,,implicit
P94,36,3.41384697,DLD,4,1,left,1.0,3.41384697,implicit
P94,37,4.156563997,DLD,4,1,right,1.0,,implicit
P94,38,2.030969143,DLD,4,1,left,1.0,2.030969143,implicit
P94,39,2.850921869,DLD,4,1,left,0.0,2.850921869,implicit
P94,40,1.013254881,DLD,4,0,right,1.0,,implicit
P94,41,0.6460120678,DLD,4,1,left,1.0,,implicit
P94,42,3.142205954,DLD,4,1,right,1.0,3.142205954,implicit
P94,43,3.078687906,DLD,4,1,left,1.0,3.078687906,implicit
