index,phase,block,Sound1_preAndPosttest,Sound2_preAndPosttest,category,side,changeTrial,alternationTargetExpectation,SoundAndAlternationConvergence,soundfileNum,duration,pitch,blockOrig,trial,discrimStim.thisTrialN,discrimStim.thisIndex,key_resp_14.keys,pretestCorr,pretestDistance,key_resp_14.rt,resp_1.keys,resp_1.corr,responseAlternation.corr,resp_1.rt,mean,SD,RTwoOutlier,LowOutlier,HighOutlier,anticipationThreshold,additiveAgeRTCorrection,ageCorrection5yrs,anticipated,anticipated5,key_resp_20.keys,key_resp_20.corr,categoryDecision,key_resp_20.rt,participant,group,sex,demographicInfo,soundDimension,trialOrder
1,pretest,1,/Users/Tweety/Desktop/K99preschoolImplicit/ramped/oneDpitch_4.wav,/Users/Tweety/Desktop/K99preschoolImplicit/ramped/oneDpitch_1.wav,D,,,,,,,,,,0,3,d,1,3,10.11318707,,,,,2.634108613,0.530028056,NA,NA,0,,,0.58,,,,,,,P27,DLD,m,1547,pitch,1
2,pretest,1,/Users/Tweety/Desktop/K99preschoolImplicit/ramped/oneDpitch_1.wav,/Users/Tweety/Desktop/K99preschoolImplicit/ramped/oneDpitch_2.wav,D,,,,,,,,,,1,1,s,0,1,6.965749979,,,,,2.634108613,0.530028056,NA,NA,0,,,0.58,,,,,,,P27,DLD,m,1547,pitch,1
3,pretest,1,/Users/Tweety/Desktop/K99preschoolImplicit/ramped/oneDpitch_1.wav,/Users/Tweety/Desktop/K99preschoolImplicit/ramped/oneDpitch_6.wav,D,,,,,,,,,,2,6,d,1,5,9.010007858,,,,,2.634108613,0.530028056,NA,NA,0,,,0.58,,,,,,,P27,DLD,m,1547,pitch,1
4,pretest,1,/Users/Tweety/Desktop/K99preschoolImplicit/ramped/oneDpitch_6.wav,/Users/Tweety/Desktop/K99preschoolImplicit/ramped/oneDpitch_4.wav,D,,,,,,,,,,3,9,s,0,2,8.060459137,,,,,2.634108613,0.530028056,NA,NA,0,,,0.58,,,,,,,P27,DLD,m,1547,pitch,1
5,pretest,1,/Users/Tweety/Desktop/K99preschoolImplicit/ramped/oneDpitch_1.wav,/Users/Tweety/Desktop/K99preschoolImplicit/ramped/oneDpitch_3.wav,D,,,,,,,,,,4,2,s,0,2,6.022773981,,,,,2.634108613,0.530028056,NA,NA,0,,,0.58,,,,,,,P27,DLD,m,1547,pitch,1
6,pretest,1,/Users/Tweety/Desktop/K99preschoolImplicit/ramped/oneDpitch_6.wav,/Users/Tweety/Desktop/K99preschoolImplicit/ramped/oneDpitch_1.wav,D,,,,,,,,,,5,5,d,1,5,29.8369,,,,,2.634108613,0.530028056,NA,NA,0,,,0.58,,,,,,,P27,DLD,m,1547,pitch,1
7,pretest,1,/Users/Tweety/Desktop/K99preschoolImplicit/ramped/oneDpitch_1.wav,/Users/Tweety/Desktop/K99preschoolImplicit/ramped/oneDpitch_1.wav,S,,,,,,,,,,6,0,s,1,0,6.011929989,,,,,2.634108613,0.530028056,NA,NA,0,,,0.58,,,,,,,P27,DLD,m,1547,pitch,1
8,pretest,1,/Users/Tweety/Desktop/K99preschoolImplicit/ramped/oneDpitch_3.wav,/Users/Tweety/Desktop/K99preschoolImplicit/ramped/oneDpitch_6.wav,D,,,,,,,,,,7,8,s,0,3,5.497639179,,,,,2.634108613,0.530028056,NA,NA,0,,,0.58,,,,,,,P27,DLD,m,1547,pitch,1
9,pretest,1,/Users/Tweety/Desktop/K99preschoolImplicit/ramped/oneDpitch_6.wav,/Users/Tweety/Desktop/K99preschoolImplicit/ramped/oneDpitch_6.wav,S,,,,,,,,,,8,11,s,1,0,5.412558079,,,,,2.634108613,0.530028056,NA,NA,0,,,0.58,,,,,,,P27,DLD,m,1547,pitch,1
10,pretest,1,/Users/Tweety/Desktop/K99preschoolImplicit/ramped/oneDpitch_2.wav,/Users/Tweety/Desktop/K99preschoolImplicit/ramped/oneDpitch_6.wav,D,,,,,,,,,,9,7,d,1,4,6.594262838,,,,,2.634108613,0.530028056,NA,NA,0,,,0.58,,,,,,,P27,DLD,m,1547,pitch,1
11,pretest,1,/Users/Tweety/Desktop/K99preschoolImplicit/ramped/oneDpitch_6.wav,/Users/Tweety/Desktop/K99preschoolImplicit/ramped/oneDpitch_5.wav,D,,,,,,,,,,10,10,s,0,1,6.866901159,,,,,2.634108613,0.530028056,NA,NA,0,,,0.58,,,,,,,P27,DLD,m,1547,pitch,1
12,pretest,1,/Users/Tweety/Desktop/K99preschoolImplicit/ramped/oneDpitch_5.wav,/Users/Tweety/Desktop/K99preschoolImplicit/ramped/oneDpitch_1.wav,D,,,,,,,,,,11,4,d,1,4,5.779578924,,,,,2.634108613,0.530028056,NA,NA,0,,,0.58,,,,,,,P27,DLD,m,1547,pitch,1
13,,,,,,,,,,,,,,,,,,,,,,,,,2.634108613,0.530028056,NA,NA,0,,,0.58,,,,,,,P27,DLD,m,1547,pitch,1
14,taskTrain,1,,,,left,,,,,,,,,,,,,,,,,,,2.634108613,0.530028056,NA,NA,0,1.8,0.74,0.58,0,0,,,,,P27,DLD,m,1547,pitch,1
15,taskTrain,1,,,,right,,,,,,,,,,,,,,,,,,,2.634108613,0.530028056,NA,NA,0,1.383,0.74,0.58,0,0,,,,,P27,DLD,m,1547,pitch,1
16,taskTrain,1,,,,right,,,,,,,,,,,,,,,,,,,2.634108613,0.530028056,NA,NA,0,1.383,0.74,0.58,0,0,,,,,P27,DLD,m,1547,pitch,1
17,taskTrain,1,,,,left,,,,,,,,,,,,,,,,,,,2.634108613,0.530028056,NA,NA,0,1.8,0.74,0.58,0,0,,,,,P27,DLD,m,1547,pitch,1
18,,,,,,,,,,,,,,,,,,,,,,,,,2.634108613,0.530028056,NA,NA,0,,,0.58,,,,,,,P27,DLD,m,1547,pitch,1
19,implicitTraining,1,,,,left,0,,,1,0.3,1.07271948,1,1,,,,,,,right,0,,2.188951969,2.634108613,0.530028056,2.188951969,2.188951969,2.188951969,1.8,0.74,0.58,1,1,,,,,P27,DLD,m,1547,pitch,1
20,implicitTraining,1,,,,right,1,right,converge,4,0.66,2.304593711,1,2,,,,,,,left,0,0,2.044434071,2.634108613,0.530028056,2.044434071,2.044434071,2.044434071,1.383,0.74,0.58,1,0,,,,,P27,DLD,m,1547,pitch,1
21,implicitTraining,1,,,,right,0,left,conflict,5,0.78,2.715218455,1,3,,,,,,,right,1,0,1.868333101,2.634108613,0.530028056,1.868333101,1.868333101,1.868333101,1.383,0.74,0.58,1,1,,,,,P27,DLD,m,1547,pitch,1
22,implicitTraining,1,,,,left,1,left,converge,3,0.54,1.893968967,1,4,,,,,,,left,1,1,2.811274052,2.634108613,0.530028056,2.811274052,2.811274052,2.811274052,1.8,0.74,0.58,0,0,,,,,P27,DLD,m,1547,pitch,1
23,implicitTraining,1,,,,left,0,right,conflict,2,0.42,1.483344223,1,5,,,,,,,left,1,0,3.06602788,2.634108613,0.530028056,3.06602788,3.06602788,3.06602788,1.8,0.74,0.58,0,0,,,,,P27,DLD,m,1547,pitch,1
24,implicitTraining,1,,,,right,1,right,converge,6,0.9,3.125843199,1,6,,,,,,,right,1,1,5.176866055,2.634108613,0.530028056,NA,5.176866055,NA,1.383,0.74,0.58,0,0,,,,,P27,DLD,m,1547,pitch,1
25,implicitTraining,1,,,,right,0,left,conflict,5,0.78,2.715218455,5,7,,,,,,,right,1,0,3.119224072,2.634108613,0.530028056,3.119224072,3.119224072,3.119224072,1.383,0.74,0.58,0,0,,,,,P27,DLD,m,1547,pitch,1
26,implicitTraining,1,,,,left,1,left,converge,2,0.42,1.483344223,5,8,,,,,,,left,1,1,2.607019901,2.634108613,0.530028056,2.607019901,2.607019901,2.607019901,1.8,0.74,0.58,0,0,,,,,P27,DLD,m,1547,pitch,1
27,implicitTraining,1,,,,left,0,right,conflict,1,0.3,1.07271948,5,9,,,,,,,left,1,0,2.786305189,2.634108613,0.530028056,2.786305189,2.786305189,2.786305189,1.8,0.74,0.58,0,0,,,,,P27,DLD,m,1547,pitch,1
28,implicitTraining,1,,,,right,1,right,converge,4,0.66,2.304593711,5,10,,,,,,,right,1,1,2.378491879,2.634108613,0.530028056,2.378491879,2.378491879,2.378491879,1.383,0.74,0.58,0,0,,,,,P27,DLD,m,1547,pitch,1
29,implicitTraining,1,,,,left,1,left,converge,3,0.54,1.893968967,5,11,,,,,,,left,1,1,2.542459011,2.634108613,0.530028056,2.542459011,2.542459011,2.542459011,1.8,0.74,0.58,0,0,,,,,P27,DLD,m,1547,pitch,1
30,implicitTraining,1,,,,right,1,right,converge,6,0.9,3.125843199,5,12,,,,,,,right,1,1,2.014678001,2.634108613,0.530028056,2.014678001,2.014678001,2.014678001,1.383,0.74,0.58,1,0,,,,,P27,DLD,m,1547,pitch,1
31,implicitTraining,1,,,,right,0,left,conflict,4,0.66,2.304593711,4,13,,,,,,,right,1,0,0.5671350956,2.634108613,0.530028056,NA,NA,0.5671350956,1.383,0.74,0.58,0,0,,,,,P27,DLD,m,1547,pitch,1
32,implicitTraining,1,,,,left,1,left,converge,1,0.3,1.07271948,4,14,,,,,,,left,1,1,2.558873892,2.634108613,0.530028056,2.558873892,2.558873892,2.558873892,1.8,0.74,0.58,0,0,,,,,P27,DLD,m,1547,pitch,1
33,implicitTraining,1,,,,right,1,right,converge,6,0.9,3.125843199,4,15,,,,,,,right,1,1,1.431853056,2.634108613,0.530028056,1.431853056,1.431853056,1.431853056,1.383,0.74,0.58,1,1,,,,,P27,DLD,m,1547,pitch,1
34,implicitTraining,1,,,,right,0,left,conflict,5,0.78,2.715218455,4,16,,,,,,,right,1,0,2.350636005,2.634108613,0.530028056,2.350636005,2.350636005,2.350636005,1.383,0.74,0.58,0,0,,,,,P27,DLD,m,1547,pitch,1
35,implicitTraining,1,,,,left,1,left,converge,2,0.42,1.483344223,4,17,,,,,,,left,1,1,2.442496061,2.634108613,0.530028056,2.442496061,2.442496061,2.442496061,1.8,0.74,0.58,1,0,,,,,P27,DLD,m,1547,pitch,1
36,implicitTraining,1,,,,left,0,right,conflict,3,0.54,1.893968967,4,18,,,,,,,right,0,1,2.168702126,2.634108613,0.530028056,2.168702126,2.168702126,2.168702126,1.8,0.74,0.58,1,1,,,,,P27,DLD,m,1547,pitch,1
37,implicitTraining,1,,,,right,1,right,converge,6,0.9,3.125843199,8,19,,,,,,,left,0,0,2.028034925,2.634108613,0.530028056,2.028034925,2.028034925,2.028034925,1.383,0.74,0.58,1,0,,,,,P27,DLD,m,1547,pitch,1
38,implicitTraining,1,,,,left,1,left,converge,3,0.54,1.893968967,8,20,,,,,,,left,1,1,2.913333893,2.634108613,0.530028056,2.913333893,2.913333893,2.913333893,1.8,0.74,0.58,0,0,,,,,P27,DLD,m,1547,pitch,1
39,implicitTraining,1,,,,right,1,right,converge,4,0.66,2.304593711,8,21,,,,,,,right,1,1,2.119313955,2.634108613,0.530028056,2.119313955,2.119313955,2.119313955,1.383,0.74,0.58,1,0,,,,,P27,DLD,m,1547,pitch,1
40,implicitTraining,1,,,,left,1,left,converge,2,0.42,1.483344223,8,22,,,,,,,left,1,1,2.512051106,2.634108613,0.530028056,2.512051106,2.512051106,2.512051106,1.8,0.74,0.58,1,0,,,,,P27,DLD,m,1547,pitch,1
41,implicitTraining,1,,,,left,0,right,conflict,1,0.3,1.07271948,8,23,,,,,,,left,1,0,2.718496084,2.634108613,0.530028056,2.718496084,2.718496084,2.718496084,1.8,0.74,0.58,0,0,,,,,P27,DLD,m,1547,pitch,1
42,implicitTraining,1,,,,right,1,right,converge,5,0.78,2.715218455,8,24,,,,,,,right,1,1,2.296041012,2.634108613,0.530028056,2.296041012,2.296041012,2.296041012,1.383,0.74,0.58,0,0,,,,,P27,DLD,m,1547,pitch,1
43,,,,,,,,,,,,,,,,,,,,,,,,,2.634108613,0.530028056,NA,NA,0,,,0.58,,,,,,,P27,DLD,m,1547,pitch,1
44,implicitTraining,2,,,,left,0,right,conflict,2,0.42,1.483344223,2,25,,,,,,,right,0,1,2.004428864,2.634108613,0.530028056,2.004428864,2.004428864,2.004428864,1.8,0.74,0.58,1,1,,,,,P27,DLD,m,1547,pitch,1
45,implicitTraining,2,,,,right,1,right,converge,5,0.78,2.715218455,2,26,,,,,,,right,1,1,2.389282942,2.634108613,0.530028056,2.389282942,2.389282942,2.389282942,1.383,0.74,0.58,0,0,,,,,P27,DLD,m,1547,pitch,1
46,implicitTraining,2,,,,left,1,left,converge,3,0.54,1.893968967,2,27,,,,,,,left,1,1,2.52877593,2.634108613,0.530028056,2.52877593,2.52877593,2.52877593,1.8,0.74,0.58,1,0,,,,,P27,DLD,m,1547,pitch,1
47,implicitTraining,2,,,,left,0,right,conflict,1,0.3,1.07271948,2,28,,,,,,,left,1,0,2.968869925,2.634108613,0.530028056,2.968869925,2.968869925,2.968869925,1.8,0.74,0.58,0,0,,,,,P27,DLD,m,1547,pitch,1
48,implicitTraining,2,,,,right,1,right,converge,6,0.9,3.125843199,2,29,,,,,,,right,1,1,2.129602909,2.634108613,0.530028056,2.129602909,2.129602909,2.129602909,1.383,0.74,0.58,0,0,,,,,P27,DLD,m,1547,pitch,1
49,implicitTraining,2,,,,right,0,left,conflict,4,0.66,2.304593711,2,30,,,,,,,right,1,0,2.650970936,2.634108613,0.530028056,2.650970936,2.650970936,2.650970936,1.383,0.74,0.58,0,0,,,,,P27,DLD,m,1547,pitch,1
50,implicitTraining,2,,,,right,0,left,conflict,6,0.9,3.125843199,6,31,,,,,,,right,1,0,3.033080101,2.634108613,0.530028056,3.033080101,3.033080101,3.033080101,1.383,0.74,0.58,0,0,,,,,P27,DLD,m,1547,pitch,1
51,implicitTraining,2,,,,left,1,left,converge,3,0.54,1.893968967,6,32,,,,,,,left,1,1,2.593960047,2.634108613,0.530028056,2.593960047,2.593960047,2.593960047,1.8,0.74,0.58,0,0,,,,,P27,DLD,m,1547,pitch,1
52,implicitTraining,2,,,,left,0,right,conflict,2,0.42,1.483344223,6,33,,,,,,,left,1,0,2.720290899,2.634108613,0.530028056,2.720290899,2.720290899,2.720290899,1.8,0.74,0.58,0,0,,,,,P27,DLD,m,1547,pitch,1
53,implicitTraining,2,,,,right,1,right,converge,4,0.66,2.304593711,6,34,,,,,,,right,1,1,2.560121059,2.634108613,0.530028056,2.560121059,2.560121059,2.560121059,1.383,0.74,0.58,0,0,,,,,P27,DLD,m,1547,pitch,1
54,implicitTraining,2,,,,left,1,left,converge,1,0.3,1.07271948,6,35,,,,,,,left,1,1,2.610692024,2.634108613,0.530028056,2.610692024,2.610692024,2.610692024,1.8,0.74,0.58,0,0,,,,,P27,DLD,m,1547,pitch,1
55,implicitTraining,2,,,,right,1,right,converge,5,0.78,2.715218455,6,36,,,,,,,right,1,1,2.514280796,2.634108613,0.530028056,2.514280796,2.514280796,2.514280796,1.383,0.74,0.58,0,0,,,,,P27,DLD,m,1547,pitch,1
56,implicitTraining,2,,,,left,1,left,converge,1,0.3,1.07271948,7,37,,,,,,,left,1,1,2.461099863,2.634108613,0.530028056,2.461099863,2.461099863,2.461099863,1.8,0.74,0.58,1,0,,,,,P27,DLD,m,1547,pitch,1
57,implicitTraining,2,,,,right,1,right,converge,4,0.66,2.304593711,7,38,,,,,,,right,1,1,2.84088707,2.634108613,0.530028056,2.84088707,2.84088707,2.84088707,1.383,0.74,0.58,0,0,,,,,P27,DLD,m,1547,pitch,1
58,implicitTraining,2,,,,right,0,left,conflict,6,0.9,3.125843199,7,39,,,,,,,right,1,0,2.548088074,2.634108613,0.530028056,2.548088074,2.548088074,2.548088074,1.383,0.74,0.58,0,0,,,,,P27,DLD,m,1547,pitch,1
59,implicitTraining,2,,,,left,1,left,converge,3,0.54,1.893968967,7,40,,,,,,,left,1,1,3.012194872,2.634108613,0.530028056,3.012194872,3.012194872,3.012194872,1.8,0.74,0.58,0,0,,,,,P27,DLD,m,1547,pitch,1
60,implicitTraining,2,,,,right,1,right,converge,5,0.78,2.715218455,7,41,,,,,,,right,1,1,4.757575989,2.634108613,0.530028056,NA,4.757575989,NA,1.383,0.74,0.58,0,0,,,,,P27,DLD,m,1547,pitch,1
61,implicitTraining,2,,,,left,1,left,converge,2,0.42,1.483344223,7,42,,,,,,,left,1,1,2.445764065,2.634108613,0.530028056,2.445764065,2.445764065,2.445764065,1.8,0.74,0.58,1,0,,,,,P27,DLD,m,1547,pitch,1
62,implicitTraining,2,,,,left,0,right,conflict,3,0.54,1.893968967,3,43,,,,,,,left,1,0,2.787024975,2.634108613,0.530028056,2.787024975,2.787024975,2.787024975,1.8,0.74,0.58,0,0,,,,,P27,DLD,m,1547,pitch,1
63,implicitTraining,2,,,,right,1,right,converge,6,0.9,3.125843199,3,44,,,,,,,right,1,1,2.240979195,2.634108613,0.530028056,2.240979195,2.240979195,2.240979195,1.383,0.74,0.58,0,0,,,,,P27,DLD,m,1547,pitch,1
64,implicitTraining,2,,,,left,1,left,converge,2,0.42,1.483344223,3,45,,,,,,,left,1,1,2.514655113,2.634108613,0.530028056,2.514655113,2.514655113,2.514655113,1.8,0.74,0.58,1,0,,,,,P27,DLD,m,1547,pitch,1
65,implicitTraining,2,,,,right,1,right,converge,5,0.78,2.715218455,3,46,,,,,,,right,1,1,2.57850194,2.634108613,0.530028056,2.57850194,2.57850194,2.57850194,1.383,0.74,0.58,0,0,,,,,P27,DLD,m,1547,pitch,1
66,implicitTraining,2,,,,right,0,left,conflict,4,0.66,2.304593711,3,47,,,,,,,right,1,0,2.035357952,2.634108613,0.530028056,2.035357952,2.035357952,2.035357952,1.383,0.74,0.58,1,0,,,,,P27,DLD,m,1547,pitch,1
67,implicitTraining,2,,,,left,1,left,converge,1,0.3,1.07271948,3,48,,,,,,,left,1,1,2.292121172,2.634108613,0.530028056,2.292121172,2.292121172,2.292121172,1.8,0.74,0.58,1,1,,,,,P27,DLD,m,1547,pitch,1
68,,,,,,,,,,,,,,,,,,,,,,,,,2.634108613,0.530028056,NA,NA,0,,,0.58,,,,,,,P27,DLD,m,1547,pitch,1
69,explicitTest,3,,,,left,0,#REF!,#REF!,1,0.3,1.07271948,1,49,,,,,,,,,#REF!,,2.634108613,0.530028056,NA,NA,0,1.8,0.74,0.58,0,0,p,0,,27.10899305,P27,DLD,m,1547,pitch,1
70,explicitTest,3,,,,right,1,right,converge,4,0.66,2.304593711,1,50,,,,,,,,,0,,2.634108613,0.530028056,NA,NA,0,1.383,0.74,0.58,0,0,left,0,0,8.179809809,P27,DLD,m,1547,pitch,1
71,explicitTest,3,,,,right,0,left,conflict,5,0.78,2.715218455,1,51,,,,,,,,,1,,2.634108613,0.530028056,NA,NA,0,1.383,0.74,0.58,0,0,left,0,0,9.995641947,P27,DLD,m,1547,pitch,1
72,explicitTest,3,,,,left,1,left,converge,3,0.54,1.893968967,1,52,,,,,,,,,0,,2.634108613,0.530028056,NA,NA,0,1.8,0.74,0.58,0,0,right,0,1,6.414720058,P27,DLD,m,1547,pitch,1
73,explicitTest,3,,,,left,0,right,conflict,2,0.42,1.483344223,1,53,,,,,,,,,0,,2.634108613,0.530028056,NA,NA,0,1.8,0.74,0.58,0,0,left,1,0,0.09900403023,P27,DLD,m,1547,pitch,1
74,explicitTest,3,,,,right,1,right,converge,6,0.9,3.125843199,1,54,,,,,,,,,1,,2.634108613,0.530028056,NA,NA,0,1.383,0.74,0.58,0,0,right,1,1,13.2588799,P27,DLD,m,1547,pitch,1
75,explicitTest,3,,,,right,0,left,conflict,5,0.78,2.715218455,5,55,,,,,,,,,1,,2.634108613,0.530028056,NA,NA,0,1.383,0.74,0.58,0,0,left,0,0,7.012847185,P27,DLD,m,1547,pitch,1
76,explicitTest,3,,,,left,1,left,converge,2,0.42,1.483344223,5,56,,,,,,,,,1,,2.634108613,0.530028056,NA,NA,0,1.8,0.74,0.58,0,0,left,1,0,9.395215988,P27,DLD,m,1547,pitch,1
77,explicitTest,3,,,,left,0,right,conflict,1,0.3,1.07271948,5,57,,,,,,,,,1,,2.634108613,0.530028056,NA,NA,0,1.8,0.74,0.58,0,0,right,0,1,3.549454927,P27,DLD,m,1547,pitch,1
78,explicitTest,3,,,,right,1,right,converge,4,0.66,2.304593711,5,58,,,,,,,,,1,,2.634108613,0.530028056,NA,NA,0,1.383,0.74,0.58,0,0,right,1,1,4.396857023,P27,DLD,m,1547,pitch,1
79,explicitTest,3,,,,left,1,left,converge,3,0.54,1.893968967,5,59,,,,,,,,,1,,2.634108613,0.530028056,NA,NA,0,1.8,0.74,0.58,0,0,left,1,0,7.931206942,P27,DLD,m,1547,pitch,1
80,explicitTest,3,,,,right,1,right,converge,6,0.9,3.125843199,5,60,,,,,,,,,1,,2.634108613,0.530028056,NA,NA,0,1.383,0.74,0.58,0,0,right,1,1,4.981329918,P27,DLD,m,1547,pitch,1
81,explicitTest,3,,,,right,0,left,conflict,4,0.66,2.304593711,4,61,,,,,,,,,0,,2.634108613,0.530028056,NA,NA,0,1.383,0.74,0.58,0,0,right,1,1,0.197717905,P27,DLD,m,1547,pitch,1
82,explicitTest,3,,,,left,1,left,converge,1,0.3,1.07271948,4,62,,,,,,,,,1,,2.634108613,0.530028056,NA,NA,0,1.8,0.74,0.58,0,0,left,1,0,4.314284086,P27,DLD,m,1547,pitch,1
83,explicitTest,3,,,,right,1,right,converge,6,0.9,3.125843199,4,63,,,,,,,,,1,,2.634108613,0.530028056,NA,NA,0,1.383,0.74,0.58,0,0,right,1,1,4.662069082,P27,DLD,m,1547,pitch,1
84,explicitTest,3,,,,right,0,left,conflict,5,0.78,2.715218455,4,64,,,,,,,,,1,,2.634108613,0.530028056,NA,NA,0,1.383,0.74,0.58,0,0,left,0,0,3.113902092,P27,DLD,m,1547,pitch,1
85,explicitTest,3,,,,left,1,left,converge,2,0.42,1.483344223,4,65,,,,,,,,,1,,2.634108613,0.530028056,NA,NA,0,1.8,0.74,0.58,0,0,left,1,0,4.732093096,P27,DLD,m,1547,pitch,1
86,explicitTest,3,,,,left,0,right,conflict,3,0.54,1.893968967,4,66,,,,,,,,,1,,2.634108613,0.530028056,NA,NA,0,1.8,0.74,0.58,0,0,right,0,1,4.514581919,P27,DLD,m,1547,pitch,1
87,explicitTest,3,,,,right,1,right,converge,6,0.9,3.125843199,8,67,,,,,,,,,1,,2.634108613,0.530028056,NA,NA,0,1.383,0.74,0.58,0,0,right,1,1,3.578956127,P27,DLD,m,1547,pitch,1
88,explicitTest,3,,,,left,1,left,converge,3,0.54,1.893968967,8,68,,,,,,,,,1,,2.634108613,0.530028056,NA,NA,0,1.8,0.74,0.58,0,0,left,1,0,4.397901058,P27,DLD,m,1547,pitch,1
89,explicitTest,3,,,,right,1,right,converge,4,0.66,2.304593711,8,69,,,,,,,,,1,,2.634108613,0.530028056,NA,NA,0,1.383,0.74,0.58,0,0,right,1,1,3.933005095,P27,DLD,m,1547,pitch,1
90,explicitTest,3,,,,left,1,left,converge,2,0.42,1.483344223,8,70,,,,,,,,,1,,2.634108613,0.530028056,NA,NA,0,1.8,0.74,0.58,0,0,left,1,0,2.231589794,P27,DLD,m,1547,pitch,1
91,explicitTest,3,,,,left,0,right,conflict,1,0.3,1.07271948,8,71,,,,,,,,,1,,2.634108613,0.530028056,NA,NA,0,1.8,0.74,0.58,0,0,right,0,1,2.316075087,P27,DLD,m,1547,pitch,1
92,explicitTest,3,,,,right,1,right,converge,5,0.78,2.715218455,8,72,,,,,,,,,1,,2.634108613,0.530028056,NA,NA,0,1.383,0.74,0.58,0,0,right,1,1,6.131957054,P27,DLD,m,1547,pitch,1
93,,,,,,,,,,,,,,,,,,,,,,,,,2.634108613,0.530028056,NA,NA,0,,,0.58,,,,,,,P27,DLD,m,1547,pitch,1
94,,,,,,,,,,,,,,,,,,,,,,,,,2.634108613,0.530028056,NA,NA,0,,,0.58,,,,,,,P27,DLD,m,1547,pitch,1
115,phase,block,Sound1,Sound2,category,side,,,,duration_dur,pitch_pitch,toy1file_explicit,sound_pitch,trial,discrimStim.thisTrialN,discrimStim.thisIndex,key_resp_14.keys,0,#N/A,key_resp_14.rt,resp_1.keys,resp_1.corr,,resp_1.rt,2.530398369,0.4765131394,NA,resp_1.rt,NA,1.383,0.66,0.58,0,0,key_resp_20.keys,key_resp_20.corr,0,key_resp_20.rt,participant,DLD,m,1655,version,list
230,phase,block,Sound1,Sound2,category,side,,,,soundfileNum,duration_dur,pitch_pitch,blockOrig,trial,discrimStim.thisTrialN,discrimStim.thisIndex,key_resp_14.keys,0,#N/A,key_resp_14.rt,resp_1.keys,resp_1.corr,,resp_1.rt,2.530398369,0.4765131394,NA,resp_1.rt,NA,1.383,0.66,0.58,0,0,key_resp_20.keys,key_resp_20.corr,0,key_resp_20.rt,participant,DLD,m,1655,version,list
231,pretest,1,/Users/Tweety/Desktop/K99preschoolImplicit/ramped/oneDpitch_6.wav,/Users/Tweety/Desktop/K99preschoolImplicit/ramped/oneDpitch_4.wav,D,,,,,,,,,,0,9,s,0,2,4.743071079,,,,,2.29977719,0.5895960138,NA,NA,0,,,0.58,,,,,,,P30,TLD,f,1667,pitch,1
232,pretest,1,/Users/Tweety/Desktop/K99preschoolImplicit/ramped/oneDpitch_2.wav,/Users/Tweety/Desktop/K99preschoolImplicit/ramped/oneDpitch_6.wav,D,,,,,,,,,,1,7,d,1,4,4.585211992,,,,,2.29977719,0.5895960138,NA,NA,0,,,0.58,,,,,,,P30,TLD,f,1667,pitch,1
233,pretest,1,/Users/Tweety/Desktop/K99preschoolImplicit/ramped/oneDpitch_1.wav,/Users/Tweety/Desktop/K99preschoolImplicit/ramped/oneDpitch_2.wav,D,,,,,,,,,,2,1,s,0,1,4.531659842,,,,,2.29977719,0.5895960138,NA,NA,0,,,0.58,,,,,,,P30,TLD,f,1667,pitch,1
234,pretest,1,/Users/Tweety/Desktop/K99preschoolImplicit/ramped/oneDpitch_1.wav,/Users/Tweety/Desktop/K99preschoolImplicit/ramped/oneDpitch_3.wav,D,,,,,,,,,,3,2,s,0,2,5.242891073,,,,,2.29977719,0.5895960138,NA,NA,0,,,0.58,,,,,,,P30,TLD,f,1667,pitch,1
235,pretest,1,/Users/Tweety/Desktop/K99preschoolImplicit/ramped/oneDpitch_1.wav,/Users/Tweety/Desktop/K99preschoolImplicit/ramped/oneDpitch_6.wav,D,,,,,,,,,,4,6,d,1,5,5.097671032,,,,,2.29977719,0.5895960138,NA,NA,0,,,0.58,,,,,,,P30,TLD,f,1667,pitch,1
236,pretest,1,/Users/Tweety/Desktop/K99preschoolImplicit/ramped/oneDpitch_6.wav,/Users/Tweety/Desktop/K99preschoolImplicit/ramped/oneDpitch_6.wav,S,,,,,,,,,,5,11,s,1,0,5.17841506,,,,,2.29977719,0.5895960138,NA,NA,0,,,0.58,,,,,,,P30,TLD,f,1667,pitch,1
237,pretest,1,/Users/Tweety/Desktop/K99preschoolImplicit/ramped/oneDpitch_1.wav,/Users/Tweety/Desktop/K99preschoolImplicit/ramped/oneDpitch_1.wav,S,,,,,,,,,,6,0,s,1,0,6.902382851,,,,,2.29977719,0.5895960138,NA,NA,0,,,0.58,,,,,,,P30,TLD,f,1667,pitch,1
238,pretest,1,/Users/Tweety/Desktop/K99preschoolImplicit/ramped/oneDpitch_5.wav,/Users/Tweety/Desktop/K99preschoolImplicit/ramped/oneDpitch_1.wav,D,,,,,,,,,,7,4,d,1,4,4.570792913,,,,,2.29977719,0.5895960138,NA,NA,0,,,0.58,,,,,,,P30,TLD,f,1667,pitch,1
239,pretest,1,/Users/Tweety/Desktop/K99preschoolImplicit/ramped/oneDpitch_4.wav,/Users/Tweety/Desktop/K99preschoolImplicit/ramped/oneDpitch_1.wav,D,,,,,,,,,,8,3,d,1,3,5.029153109,,,,,2.29977719,0.5895960138,NA,NA,0,,,0.58,,,,,,,P30,TLD,f,1667,pitch,1
240,pretest,1,/Users/Tweety/Desktop/K99preschoolImplicit/ramped/oneDpitch_6.wav,/Users/Tweety/Desktop/K99preschoolImplicit/ramped/oneDpitch_1.wav,D,,,,,,,,,,9,5,d,1,5,4.496685028,,,,,2.29977719,0.5895960138,NA,NA,0,,,0.58,,,,,,,P30,TLD,f,1667,pitch,1
241,pretest,1,/Users/Tweety/Desktop/K99preschoolImplicit/ramped/oneDpitch_3.wav,/Users/Tweety/Desktop/K99preschoolImplicit/ramped/oneDpitch_6.wav,D,,,,,,,,,,10,8,d,1,3,5.097781897,,,,,2.29977719,0.5895960138,NA,NA,0,,,0.58,,,,,,,P30,TLD,f,1667,pitch,1
242,pretest,1,/Users/Tweety/Desktop/K99preschoolImplicit/ramped/oneDpitch_6.wav,/Users/Tweety/Desktop/K99preschoolImplicit/ramped/oneDpitch_5.wav,D,,,,,,,,,,11,10,s,0,1,4.912818193,,,,,2.29977719,0.5895960138,NA,NA,0,,,0.58,,,,,,,P30,TLD,f,1667,pitch,1
243,,,,,,,,,,,,,,,,,,,,,,,,,2.29977719,0.5895960138,NA,NA,0,,,0.58,,,,,,,P30,TLD,f,1667,pitch,1
244,taskTrain,1,,,,left,,,,,,,,,,,,,,,,,,,2.29977719,0.5895960138,NA,NA,0,1.8,0.66,0.58,0,0,,,,,P30,TLD,f,1667,pitch,1
245,taskTrain,1,,,,right,,,,,,,,,,,,,,,,,,,2.29977719,0.5895960138,NA,NA,0,1.383,0.66,0.58,0,0,,,,,P30,TLD,f,1667,pitch,1
246,taskTrain,1,,,,right,,,,,,,,,,,,,,,,,,,2.29977719,0.5895960138,NA,NA,0,1.383,0.66,0.58,0,0,,,,,P30,TLD,f,1667,pitch,1
247,taskTrain,1,,,,left,,,,,,,,,,,,,,,,,,,2.29977719,0.5895960138,NA,NA,0,1.8,0.66,0.58,0,0,,,,,P30,TLD,f,1667,pitch,1
248,,,,,,,,,,,,,,,,,,,,,,,,,2.29977719,0.5895960138,NA,NA,0,,,0.58,,,,,,,P30,TLD,f,1667,pitch,1
249,implicitTraining,1,,,,left,0,,,1,0.3,1.07271948,1,1,,,,,,,left,1,,3.168664217,2.29977719,0.5895960138,3.168664217,3.168664217,3.168664217,1.8,0.66,0.58,0,0,,,,,P30,TLD,f,1667,pitch,1
250,implicitTraining,1,,,,right,1,right,converge,4,0.66,2.304593711,1,2,,,,,,,right,1,1,2.079955101,2.29977719,0.5895960138,2.079955101,2.079955101,2.079955101,1.383,0.66,0.58,0,0,,,,,P30,TLD,f,1667,pitch,1
251,implicitTraining,1,,,,right,0,left,conflict,5,0.78,2.715218455,1,3,,,,,,,right,1,0,2.235424995,2.29977719,0.5895960138,2.235424995,2.235424995,2.235424995,1.383,0.66,0.58,0,0,,,,,P30,TLD,f,1667,pitch,1
252,implicitTraining,1,,,,left,1,left,converge,3,0.54,1.893968967,1,4,,,,,,,left,1,1,2.761380196,2.29977719,0.5895960138,2.761380196,2.761380196,2.761380196,1.8,0.66,0.58,0,0,,,,,P30,TLD,f,1667,pitch,1
253,implicitTraining,1,,,,left,0,right,conflict,2,0.42,1.483344223,1,5,,,,,,,left,1,0,2.663857937,2.29977719,0.5895960138,2.663857937,2.663857937,2.663857937,1.8,0.66,0.58,0,0,,,,,P30,TLD,f,1667,pitch,1
254,implicitTraining,1,,,,right,1,right,converge,6,0.9,3.125843199,1,6,,,,,,,right,1,1,2.379137993,2.29977719,0.5895960138,2.379137993,2.379137993,2.379137993,1.383,0.66,0.58,0,0,,,,,P30,TLD,f,1667,pitch,1
255,implicitTraining,1,,,,right,0,left,conflict,5,0.78,2.715218455,5,7,,,,,,,right,1,0,2.248915911,2.29977719,0.5895960138,2.248915911,2.248915911,2.248915911,1.383,0.66,0.58,0,0,,,,,P30,TLD,f,1667,pitch,1
256,implicitTraining,1,,,,left,1,left,converge,2,0.42,1.483344223,5,8,,,,,,,left,1,1,2.578914881,2.29977719,0.5895960138,2.578914881,2.578914881,2.578914881,1.8,0.66,0.58,0,0,,,,,P30,TLD,f,1667,pitch,1
257,implicitTraining,1,,,,left,0,right,conflict,1,0.3,1.07271948,5,9,,,,,,,left,1,0,3.066041946,2.29977719,0.5895960138,3.066041946,3.066041946,3.066041946,1.8,0.66,0.58,0,0,,,,,P30,TLD,f,1667,pitch,1
258,implicitTraining,1,,,,right,1,right,converge,4,0.66,2.304593711,5,10,,,,,,,right,1,1,2.178924084,2.29977719,0.5895960138,2.178924084,2.178924084,2.178924084,1.383,0.66,0.58,0,0,,,,,P30,TLD,f,1667,pitch,1
259,implicitTraining,1,,,,left,1,left,converge,3,0.54,1.893968967,5,11,,,,,,,left,1,1,2.328343153,2.29977719,0.5895960138,2.328343153,2.328343153,2.328343153,1.8,0.66,0.58,1,1,,,,,P30,TLD,f,1667,pitch,1
260,implicitTraining,1,,,,right,1,right,converge,6,0.9,3.125843199,5,12,,,,,,,right,1,1,2.081224918,2.29977719,0.5895960138,2.081224918,2.081224918,2.081224918,1.383,0.66,0.58,0,0,,,,,P30,TLD,f,1667,pitch,1
261,implicitTraining,1,,,,right,0,left,conflict,4,0.66,2.304593711,4,13,,,,,,,right,1,0,2.169044971,2.29977719,0.5895960138,2.169044971,2.169044971,2.169044971,1.383,0.66,0.58,0,0,,,,,P30,TLD,f,1667,pitch,1
262,implicitTraining,1,,,,left,1,left,converge,1,0.3,1.07271948,4,14,,,,,,,left,1,1,2.694313049,2.29977719,0.5895960138,2.694313049,2.694313049,2.694313049,1.8,0.66,0.58,0,0,,,,,P30,TLD,f,1667,pitch,1
263,implicitTraining,1,,,,right,1,right,converge,6,0.9,3.125843199,4,15,,,,,,,right,1,1,2.427786827,2.29977719,0.5895960138,2.427786827,2.427786827,2.427786827,1.383,0.66,0.58,0,0,,,,,P30,TLD,f,1667,pitch,1
264,implicitTraining,1,,,,right,0,left,conflict,5,0.78,2.715218455,4,16,,,,,,,right,1,0,2.302696943,2.29977719,0.5895960138,2.302696943,2.302696943,2.302696943,1.383,0.66,0.58,0,0,,,,,P30,TLD,f,1667,pitch,1
265,implicitTraining,1,,,,left,1,left,converge,2,0.42,1.483344223,4,17,,,,,,,left,1,1,3.239076138,2.29977719,0.5895960138,3.239076138,3.239076138,3.239076138,1.8,0.66,0.58,0,0,,,,,P30,TLD,f,1667,pitch,1
266,implicitTraining,1,,,,left,0,right,conflict,3,0.54,1.893968967,4,18,,,,,,,left,1,0,1.269550085,2.29977719,0.5895960138,1.269550085,1.269550085,1.269550085,1.8,0.66,0.58,1,1,,,,,P30,TLD,f,1667,pitch,1
267,implicitTraining,1,,,,right,1,right,converge,6,0.9,3.125843199,8,19,,,,,,,right,1,1,2.41121316,2.29977719,0.5895960138,2.41121316,2.41121316,2.41121316,1.383,0.66,0.58,0,0,,,,,P30,TLD,f,1667,pitch,1
268,implicitTraining,1,,,,left,1,left,converge,3,0.54,1.893968967,8,20,,,,,,,left,1,1,2.647567034,2.29977719,0.5895960138,2.647567034,2.647567034,2.647567034,1.8,0.66,0.58,0,0,,,,,P30,TLD,f,1667,pitch,1
269,implicitTraining,1,,,,right,1,right,converge,4,0.66,2.304593711,8,21,,,,,,,right,1,1,2.25957799,2.29977719,0.5895960138,2.25957799,2.25957799,2.25957799,1.383,0.66,0.58,0,0,,,,,P30,TLD,f,1667,pitch,1
270,implicitTraining,1,,,,left,1,left,converge,2,0.42,1.483344223,8,22,,,,,,,left,1,1,2.844856024,2.29977719,0.5895960138,2.844856024,2.844856024,2.844856024,1.8,0.66,0.58,0,0,,,,,P30,TLD,f,1667,pitch,1
271,implicitTraining,1,,,,left,0,right,conflict,1,0.3,1.07271948,8,23,,,,,,,right,0,1,2.571698904,2.29977719,0.5895960138,2.571698904,2.571698904,2.571698904,1.8,0.66,0.58,0,0,,,,,P30,TLD,f,1667,pitch,1
272,implicitTraining,1,,,,right,1,right,converge,5,0.78,2.715218455,8,24,,,,,,,right,1,1,2.62409997,2.29977719,0.5895960138,2.62409997,2.62409997,2.62409997,1.383,0.66,0.58,0,0,,,,,P30,TLD,f,1667,pitch,1
273,,,,,,,,,,,,,,,,,,,,,,,,,2.29977719,0.5895960138,NA,NA,0,,,0.58,,,,,,,P30,TLD,f,1667,pitch,1
274,implicitTraining,2,,,,left,0,right,conflict,2,0.42,1.483344223,2,25,,,,,,,left,1,0,2.585350037,2.29977719,0.5895960138,2.585350037,2.585350037,2.585350037,1.8,0.66,0.58,0,0,,,,,P30,TLD,f,1667,pitch,1
275,implicitTraining,2,,,,right,1,right,converge,5,0.78,2.715218455,2,26,,,,,,,right,1,1,1.964307785,2.29977719,0.5895960138,1.964307785,1.964307785,1.964307785,1.383,0.66,0.58,1,0,,,,,P30,TLD,f,1667,pitch,1
276,implicitTraining,2,,,,left,1,left,converge,3,0.54,1.893968967,2,27,,,,,,,left,1,1,2.192814827,2.29977719,0.5895960138,2.192814827,2.192814827,2.192814827,1.8,0.66,0.58,1,1,,,,,P30,TLD,f,1667,pitch,1
277,implicitTraining,2,,,,left,0,right,conflict,1,0.3,1.07271948,2,28,,,,,,,right,0,1,1.08693099,2.29977719,0.5895960138,1.08693099,1.08693099,1.08693099,1.8,0.66,0.58,1,1,,,,,P30,TLD,f,1667,pitch,1
278,implicitTraining,2,,,,right,1,right,converge,6,0.9,3.125843199,2,29,,,,,,,right,1,1,2.243709803,2.29977719,0.5895960138,2.243709803,2.243709803,2.243709803,1.383,0.66,0.58,0,0,,,,,P30,TLD,f,1667,pitch,1
279,implicitTraining,2,,,,right,0,left,conflict,4,0.66,2.304593711,2,30,,,,,,,left,0,1,1.067956924,2.29977719,0.5895960138,1.067956924,1.067956924,1.067956924,1.383,0.66,0.58,1,1,,,,,P30,TLD,f,1667,pitch,1
280,implicitTraining,2,,,,right,0,left,conflict,6,0.9,3.125843199,6,31,,,,,,,right,1,0,2.286437035,2.29977719,0.5895960138,2.286437035,2.286437035,2.286437035,1.383,0.66,0.58,0,0,,,,,P30,TLD,f,1667,pitch,1
281,implicitTraining,2,,,,left,1,left,converge,3,0.54,1.893968967,6,32,,,,,,,left,1,1,2.575420141,2.29977719,0.5895960138,2.575420141,2.575420141,2.575420141,1.8,0.66,0.58,0,0,,,,,P30,TLD,f,1667,pitch,1
282,implicitTraining,2,,,,left,0,right,conflict,2,0.42,1.483344223,6,33,,,,,,,left,1,0,2.533801794,2.29977719,0.5895960138,2.533801794,2.533801794,2.533801794,1.8,0.66,0.58,0,0,,,,,P30,TLD,f,1667,pitch,1
283,implicitTraining,2,,,,right,1,right,converge,4,0.66,2.304593711,6,34,,,,,,,right,1,1,2.278382063,2.29977719,0.5895960138,2.278382063,2.278382063,2.278382063,1.383,0.66,0.58,0,0,,,,,P30,TLD,f,1667,pitch,1
284,implicitTraining,2,,,,left,1,left,converge,1,0.3,1.07271948,6,35,,,,,,,left,1,1,2.648170948,2.29977719,0.5895960138,2.648170948,2.648170948,2.648170948,1.8,0.66,0.58,0,0,,,,,P30,TLD,f,1667,pitch,1
285,implicitTraining,2,,,,right,1,right,converge,5,0.78,2.715218455,6,36,,,,,,,right,1,1,2.30248189,2.29977719,0.5895960138,2.30248189,2.30248189,2.30248189,1.383,0.66,0.58,0,0,,,,,P30,TLD,f,1667,pitch,1
286,implicitTraining,2,,,,left,1,left,converge,1,0.3,1.07271948,7,37,,,,,,,left,1,1,2.29482317,2.29977719,0.5895960138,2.29482317,2.29482317,2.29482317,1.8,0.66,0.58,1,1,,,,,P30,TLD,f,1667,pitch,1
287,implicitTraining,2,,,,right,1,right,converge,4,0.66,2.304593711,7,38,,,,,,,right,1,1,2.543582916,2.29977719,0.5895960138,2.543582916,2.543582916,2.543582916,1.383,0.66,0.58,0,0,,,,,P30,TLD,f,1667,pitch,1
288,implicitTraining,2,,,,right,0,left,conflict,6,0.9,3.125843199,7,39,,,,,,,right,1,0,2.502627134,2.29977719,0.5895960138,2.502627134,2.502627134,2.502627134,1.383,0.66,0.58,0,0,,,,,P30,TLD,f,1667,pitch,1
289,implicitTraining,2,,,,left,1,left,converge,3,0.54,1.893968967,7,40,,,,,,,left,1,1,3.108629942,2.29977719,0.5895960138,3.108629942,3.108629942,3.108629942,1.8,0.66,0.58,0,0,,,,,P30,TLD,f,1667,pitch,1
290,implicitTraining,2,,,,right,1,right,converge,5,0.78,2.715218455,7,41,,,,,,,right,1,1,2.163854122,2.29977719,0.5895960138,2.163854122,2.163854122,2.163854122,1.383,0.66,0.58,0,0,,,,,P30,TLD,f,1667,pitch,1
291,implicitTraining,2,,,,left,1,left,converge,2,0.42,1.483344223,7,42,,,,,,,left,1,1,0.8293449879,2.29977719,0.5895960138,0.8293449879,0.8293449879,0.8293449879,1.8,0.66,0.58,1,1,,,,,P30,TLD,f,1667,pitch,1
292,implicitTraining,2,,,,left,0,right,conflict,3,0.54,1.893968967,3,43,,,,,,,left,1,0,3.069148064,2.29977719,0.5895960138,3.069148064,3.069148064,3.069148064,1.8,0.66,0.58,0,0,,,,,P30,TLD,f,1667,pitch,1
293,implicitTraining,2,,,,right,1,right,converge,6,0.9,3.125843199,3,44,,,,,,,right,1,1,2.362790108,2.29977719,0.5895960138,2.362790108,2.362790108,2.362790108,1.383,0.66,0.58,0,0,,,,,P30,TLD,f,1667,pitch,1
294,implicitTraining,2,,,,left,1,left,converge,2,0.42,1.483344223,3,45,,,,,,,left,1,1,2.728379965,2.29977719,0.5895960138,2.728379965,2.728379965,2.728379965,1.8,0.66,0.58,0,0,,,,,P30,TLD,f,1667,pitch,1
295,implicitTraining,2,,,,right,1,right,converge,5,0.78,2.715218455,3,46,,,,,,,right,1,1,2.196353912,2.29977719,0.5895960138,2.196353912,2.196353912,2.196353912,1.383,0.66,0.58,0,0,,,,,P30,TLD,f,1667,pitch,1
296,implicitTraining,2,,,,right,0,left,conflict,4,0.66,2.304593711,3,47,,,,,,,right,1,0,2.434234142,2.29977719,0.5895960138,2.434234142,2.434234142,2.434234142,1.383,0.66,0.58,0,0,,,,,P30,TLD,f,1667,pitch,1
297,implicitTraining,2,,,,left,1,left,converge,1,0.3,1.07271948,3,48,,,,,,,left,1,1,3.195119858,2.29977719,0.5895960138,3.195119858,3.195119858,3.195119858,1.8,0.66,0.58,0,0,,,,,P30,TLD,f,1667,pitch,1
298,,,,,,,,,,,,,,,,,,,,,,,,,2.29977719,0.5895960138,NA,NA,0,,,0.58,,,,,,,P30,TLD,f,1667,pitch,1
299,explicitTest,3,,,,left,0,right,conflict,1,0.3,1.07271948,1,49,,,,,,,,,1,,2.29977719,0.5895960138,NA,NA,0,1.8,0.66,0.58,0,0,right,0,1,1.202677011,P30,TLD,f,1667,pitch,1
300,explicitTest,3,,,,right,1,right,converge,4,0.66,2.304593711,1,50,,,,,,,,,1,,2.29977719,0.5895960138,NA,NA,0,1.383,0.66,0.58,0,0,right,1,1,1.015668154,P30,TLD,f,1667,pitch,1
301,explicitTest,3,,,,right,0,left,conflict,5,0.78,2.715218455,1,51,,,,,,,,,1,,2.29977719,0.5895960138,NA,NA,0,1.383,0.66,0.58,0,0,left,0,0,0.09832715988,P30,TLD,f,1667,pitch,1
302,explicitTest,3,,,,left,1,left,converge,3,0.54,1.893968967,1,52,,,,,,,,,0,,2.29977719,0.5895960138,NA,NA,0,1.8,0.66,0.58,0,0,right,0,1,0.7331190109,P30,TLD,f,1667,pitch,1
303,explicitTest,3,,,,left,0,right,conflict,2,0.42,1.483344223,1,53,,,,,,,,,1,,2.29977719,0.5895960138,NA,NA,0,1.8,0.66,0.58,0,0,right,0,1,0.7831101418,P30,TLD,f,1667,pitch,1
304,explicitTest,3,,,,right,1,right,converge,6,0.9,3.125843199,1,54,,,,,,,,,0,,2.29977719,0.5895960138,NA,NA,0,1.383,0.66,0.58,0,0,left,0,0,0.8982310295,P30,TLD,f,1667,pitch,1
305,explicitTest,3,,,,right,0,left,conflict,5,0.78,2.715218455,5,55,,,,,,,,,0,,2.29977719,0.5895960138,NA,NA,0,1.383,0.66,0.58,0,0,right,1,1,1.865966082,P30,TLD,f,1667,pitch,1
306,explicitTest,3,,,,left,1,left,converge,2,0.42,1.483344223,5,56,,,,,,,,,1,,2.29977719,0.5895960138,NA,NA,0,1.8,0.66,0.58,0,0,left,1,0,3.64693594,P30,TLD,f,1667,pitch,1
307,explicitTest,3,,,,left,0,right,conflict,1,0.3,1.07271948,5,57,,,,,,,,,1,,2.29977719,0.5895960138,NA,NA,0,1.8,0.66,0.58,0,0,right,0,1,1.648034096,P30,TLD,f,1667,pitch,1
308,explicitTest,3,,,,right,1,right,converge,4,0.66,2.304593711,5,58,,,,,,,,,0,,2.29977719,0.5895960138,NA,NA,0,1.383,0.66,0.58,0,0,left,0,0,0.8320291042,P30,TLD,f,1667,pitch,1
309,explicitTest,3,,,,left,1,left,converge,3,0.54,1.893968967,5,59,,,,,,,,,0,,2.29977719,0.5895960138,NA,NA,0,1.8,0.66,0.58,0,0,right,0,1,0.4660871029,P30,TLD,f,1667,pitch,1
310,explicitTest,3,,,,right,1,right,converge,6,0.9,3.125843199,5,60,,,,,,,,,1,,2.29977719,0.5895960138,NA,NA,0,1.383,0.66,0.58,0,0,right,1,1,1.815747976,P30,TLD,f,1667,pitch,1
311,explicitTest,3,,,,right,0,left,conflict,4,0.66,2.304593711,4,61,,,,,,,,,1,,2.29977719,0.5895960138,NA,NA,0,1.383,0.66,0.58,0,0,left,0,0,1.182350159,P30,TLD,f,1667,pitch,1
312,explicitTest,3,,,,left,1,left,converge,1,0.3,1.07271948,4,62,,,,,,,,,0,,2.29977719,0.5895960138,NA,NA,0,1.8,0.66,0.58,0,0,right,0,1,1.13112402,P30,TLD,f,1667,pitch,1
313,explicitTest,3,,,,right,1,right,converge,6,0.9,3.125843199,4,63,,,,,,,,,1,,2.29977719,0.5895960138,NA,NA,0,1.383,0.66,0.58,0,0,right,1,1,1.049225092,P30,TLD,f,1667,pitch,1
314,explicitTest,3,,,,right,0,left,conflict,5,0.78,2.715218455,4,64,,,,,,,,,0,,2.29977719,0.5895960138,NA,NA,0,1.383,0.66,0.58,0,0,right,1,1,0.8981740475,P30,TLD,f,1667,pitch,1
315,explicitTest,3,,,,left,1,left,converge,2,0.42,1.483344223,4,65,,,,,,,,,1,,2.29977719,0.5895960138,NA,NA,0,1.8,0.66,0.58,0,0,left,1,0,0.4498090744,P30,TLD,f,1667,pitch,1
316,explicitTest,3,,,,left,0,right,conflict,3,0.54,1.893968967,4,66,,,,,,,,,1,,2.29977719,0.5895960138,NA,NA,0,1.8,0.66,0.58,0,0,right,0,1,0.3995831013,P30,TLD,f,1667,pitch,1
317,explicitTest,3,,,,right,1,right,converge,6,0.9,3.125843199,8,67,,,,,,,,,1,,2.29977719,0.5895960138,NA,NA,0,1.383,0.66,0.58,0,0,right,1,1,1.215283871,P30,TLD,f,1667,pitch,1
318,explicitTest,3,,,,left,1,left,converge,3,0.54,1.893968967,8,68,,,,,,,,,1,,2.29977719,0.5895960138,NA,NA,0,1.8,0.66,0.58,0,0,left,1,0,1.04864502,P30,TLD,f,1667,pitch,1
319,explicitTest,3,,,,right,1,right,converge,4,0.66,2.304593711,8,69,,,,,,,,,0,,2.29977719,0.5895960138,NA,NA,0,1.383,0.66,0.58,0,0,left,0,0,0.8300139904,P30,TLD,f,1667,pitch,1
320,explicitTest,3,,,,left,1,left,converge,2,0.42,1.483344223,8,70,,,,,,,,,1,,2.29977719,0.5895960138,NA,NA,0,1.8,0.66,0.58,0,0,left,1,0,0.8158459663,P30,TLD,f,1667,pitch,1
321,explicitTest,3,,,,left,0,right,conflict,1,0.3,1.07271948,8,71,,,,,,,,,1,,2.29977719,0.5895960138,NA,NA,0,1.8,0.66,0.58,0,0,right,0,1,1.248084068,P30,TLD,f,1667,pitch,1
322,explicitTest,3,,,,right,1,right,converge,5,0.78,2.715218455,8,72,,,,,,,,,0,,2.29977719,0.5895960138,NA,NA,0,1.383,0.66,0.58,0,0,left,0,0,1.432448149,P30,TLD,f,1667,pitch,1
323,,,,,,,,,,,,,,,,,,,,,,,,,2.29977719,0.5895960138,NA,NA,0,,,0.58,,,,,,,P30,TLD,f,1667,pitch,1
324,,,,,,,,,,,,,,,,,,,,,,,,,2.29977719,0.5895960138,NA,NA,0,,,0.58,,,,,,,P30,TLD,f,1667,pitch,1
346,pretest,1,/Users/Tweety/Desktop/K99preschoolImplicit/ramped/oneDdur_12.wav,/Users/Tweety/Desktop/K99preschoolImplicit/ramped/oneDdur_10.wav,D,,,,,,,,,,0,9,s,0,2,4.868042231,,,,,2.569629123,0.7695156536,NA,NA,0,,,0.58,,,,,,,P33,TLD,f,1592,duration,1
347,pretest,1,/Users/Tweety/Desktop/K99preschoolImplicit/ramped/oneDdur_12.wav,/Users/Tweety/Desktop/K99preschoolImplicit/ramped/oneDdur_12.wav,S,,,,,,,,,,1,11,d,0,0,6.127039909,,,,,2.569629123,0.7695156536,NA,NA,0,,,0.58,,,,,,,P33,TLD,f,1592,duration,1
348,pretest,1,/Users/Tweety/Desktop/K99preschoolImplicit/ramped/oneDdur_7.wav,/Users/Tweety/Desktop/K99preschoolImplicit/ramped/oneDdur_7.wav,S,,,,,,,,,,2,0,s,1,0,4.965163946,,,,,2.569629123,0.7695156536,NA,NA,0,,,0.58,,,,,,,P33,TLD,f,1592,duration,1
349,pretest,1,/Users/Tweety/Desktop/K99preschoolImplicit/ramped/oneDdur_7.wav,/Users/Tweety/Desktop/K99preschoolImplicit/ramped/oneDdur_8.wav,D,,,,,,,,,,3,1,d,1,1,4.710299015,,,,,2.569629123,0.7695156536,NA,NA,0,,,0.58,,,,,,,P33,TLD,f,1592,duration,1
350,pretest,1,/Users/Tweety/Desktop/K99preschoolImplicit/ramped/oneDdur_10.wav,/Users/Tweety/Desktop/K99preschoolImplicit/ramped/oneDdur_7.wav,D,,,,,,,,,,4,3,s,0,3,13.5433929,,,,,2.569629123,0.7695156536,NA,NA,0,,,0.58,,,,,,,P33,TLD,f,1592,duration,1
351,pretest,1,/Users/Tweety/Desktop/K99preschoolImplicit/ramped/oneDdur_7.wav,/Users/Tweety/Desktop/K99preschoolImplicit/ramped/oneDdur_12.wav,D,,,,,,,,,,5,6,d,1,5,8.578515053,,,,,2.569629123,0.7695156536,NA,NA,0,,,0.58,,,,,,,P33,TLD,f,1592,duration,1
352,pretest,1,/Users/Tweety/Desktop/K99preschoolImplicit/ramped/oneDdur_12.wav,/Users/Tweety/Desktop/K99preschoolImplicit/ramped/oneDdur_7.wav,D,,,,,,,,,,6,5,p,,5,11.59438801,,,,,2.569629123,0.7695156536,NA,NA,0,,,0.58,,,,,,,P33,TLD,f,1592,duration,1
353,pretest,1,/Users/Tweety/Desktop/K99preschoolImplicit/ramped/oneDdur_11.wav,/Users/Tweety/Desktop/K99preschoolImplicit/ramped/oneDdur_7.wav,D,,,,,,,,,,7,4,s,0,4,5.164265871,,,,,2.569629123,0.7695156536,NA,NA,0,,,0.58,,,,,,,P33,TLD,f,1592,duration,1
354,pretest,1,/Users/Tweety/Desktop/K99preschoolImplicit/ramped/oneDdur_12.wav,/Users/Tweety/Desktop/K99preschoolImplicit/ramped/oneDdur_11.wav,D,,,,,,,,,,8,10,d,1,1,5.678913832,,,,,2.569629123,0.7695156536,NA,NA,0,,,0.58,,,,,,,P33,TLD,f,1592,duration,1
355,pretest,1,/Users/Tweety/Desktop/K99preschoolImplicit/ramped/oneDdur_8.wav,/Users/Tweety/Desktop/K99preschoolImplicit/ramped/oneDdur_12.wav,D,,,,,,,,,,9,7,s,0,4,12.74516201,,,,,2.569629123,0.7695156536,NA,NA,0,,,0.58,,,,,,,P33,TLD,f,1592,duration,1
356,pretest,1,/Users/Tweety/Desktop/K99preschoolImplicit/ramped/oneDdur_9.wav,/Users/Tweety/Desktop/K99preschoolImplicit/ramped/oneDdur_12.wav,D,,,,,,,,,,10,8,s,0,3,18.35605907,,,,,2.569629123,0.7695156536,NA,NA,0,,,0.58,,,,,,,P33,TLD,f,1592,duration,1
357,pretest,1,/Users/Tweety/Desktop/K99preschoolImplicit/ramped/oneDdur_7.wav,/Users/Tweety/Desktop/K99preschoolImplicit/ramped/oneDdur_9.wav,D,,,,,,,,,,11,2,d,1,2,9.195083141,,,,,2.569629123,0.7695156536,NA,NA,0,,,0.58,,,,,,,P33,TLD,f,1592,duration,1
358,,,,,,,,,,,,,,,,,,,,,,,,,2.569629123,0.7695156536,NA,NA,0,,,0.58,,,,,,,P33,TLD,f,1592,duration,1
359,taskTrain,1,,,,left,,,,,,,,,,,,,,,,,,,2.569629123,0.7695156536,NA,NA,0,1.8,0.74,0.58,0,0,,,,,P33,TLD,f,1592,duration,1
360,taskTrain,1,,,,right,,,,,,,,,,,,,,,,,,,2.569629123,0.7695156536,NA,NA,0,1.383,0.74,0.58,0,0,,,,,P33,TLD,f,1592,duration,1
361,taskTrain,1,,,,right,,,,,,,,,,,,,,,,,,,2.569629123,0.7695156536,NA,NA,0,1.383,0.74,0.58,0,0,,,,,P33,TLD,f,1592,duration,1
362,taskTrain,1,,,,left,,,,,,,,,,,,,,,,,,,2.569629123,0.7695156536,NA,NA,0,1.8,0.74,0.58,0,0,,,,,P33,TLD,f,1592,duration,1
363,,,,,,,,,,,,,,,,,,,,,,,,,2.569629123,0.7695156536,NA,NA,0,,,0.58,,,,,,,P33,TLD,f,1592,duration,1
364,implicitTraining,1,,,,left,0,,,1,0.3,1.07271948,1,1,,,,,,,left,1,,3.067497969,2.569629123,0.7695156536,3.067497969,3.067497969,3.067497969,1.8,0.74,0.58,0,0,,,,,P33,TLD,f,1592,duration,1
365,implicitTraining,1,,,,right,1,right,converge,4,0.66,2.304593711,1,2,,,,,,,right,1,1,2.270562172,2.569629123,0.7695156536,2.270562172,2.270562172,2.270562172,1.383,0.74,0.58,0,0,,,,,P33,TLD,f,1592,duration,1
366,implicitTraining,1,,,,right,0,left,conflict,5,0.78,2.715218455,1,3,,,,,,,right,1,0,2.683135033,2.569629123,0.7695156536,2.683135033,2.683135033,2.683135033,1.383,0.74,0.58,0,0,,,,,P33,TLD,f,1592,duration,1
367,implicitTraining,1,,,,left,1,left,converge,3,0.54,1.893968967,1,4,,,,,,,left,1,1,2.562393904,2.569629123,0.7695156536,2.562393904,2.562393904,2.562393904,1.8,0.74,0.58,0,0,,,,,P33,TLD,f,1592,duration,1
368,implicitTraining,1,,,,left,0,right,conflict,2,0.42,1.483344223,1,5,,,,,,,left,1,0,3.046265125,2.569629123,0.7695156536,3.046265125,3.046265125,3.046265125,1.8,0.74,0.58,0,0,,,,,P33,TLD,f,1592,duration,1
369,implicitTraining,1,,,,right,1,right,converge,6,0.9,3.125843199,1,6,,,,,,,right,1,1,2.812283039,2.569629123,0.7695156536,2.812283039,2.812283039,2.812283039,1.383,0.74,0.58,0,0,,,,,P33,TLD,f,1592,duration,1
370,implicitTraining,1,,,,right,0,left,conflict,5,0.78,2.715218455,5,7,,,,,,,right,1,0,2.149168015,2.569629123,0.7695156536,2.149168015,2.149168015,2.149168015,1.383,0.74,0.58,0,0,,,,,P33,TLD,f,1592,duration,1
371,implicitTraining,1,,,,left,1,left,converge,2,0.42,1.483344223,5,8,,,,,,,left,1,1,3.494579077,2.569629123,0.7695156536,3.494579077,3.494579077,3.494579077,1.8,0.74,0.58,0,0,,,,,P33,TLD,f,1592,duration,1
372,implicitTraining,1,,,,left,0,right,conflict,1,0.3,1.07271948,5,9,,,,,,,left,1,0,3.551725864,2.569629123,0.7695156536,3.551725864,3.551725864,3.551725864,1.8,0.74,0.58,0,0,,,,,P33,TLD,f,1592,duration,1
373,implicitTraining,1,,,,right,1,right,converge,4,0.66,2.304593711,5,10,,,,,,,right,1,1,2.794859886,2.569629123,0.7695156536,2.794859886,2.794859886,2.794859886,1.383,0.74,0.58,0,0,,,,,P33,TLD,f,1592,duration,1
374,implicitTraining,1,,,,left,1,left,converge,3,0.54,1.893968967,5,11,,,,,,,left,1,1,2.963539124,2.569629123,0.7695156536,2.963539124,2.963539124,2.963539124,1.8,0.74,0.58,0,0,,,,,P33,TLD,f,1592,duration,1
375,implicitTraining,1,,,,right,1,right,converge,6,0.9,3.125843199,5,12,,,,,,,right,1,1,2.556634903,2.569629123,0.7695156536,2.556634903,2.556634903,2.556634903,1.383,0.74,0.58,0,0,,,,,P33,TLD,f,1592,duration,1
376,implicitTraining,1,,,,right,0,left,conflict,4,0.66,2.304593711,4,13,,,,,,,right,1,0,0.5181689262,2.569629123,0.7695156536,0.5181689262,0.5181689262,0.5181689262,1.383,0.74,0.58,1,1,,,,,P33,TLD,f,1592,duration,1
377,implicitTraining,1,,,,left,1,left,converge,1,0.3,1.07271948,4,14,,,,,,,left,1,1,3.959549904,2.569629123,0.7695156536,3.959549904,3.959549904,3.959549904,1.8,0.74,0.58,0,0,,,,,P33,TLD,f,1592,duration,1
378,implicitTraining,1,,,,right,1,right,converge,6,0.9,3.125843199,4,15,,,,,,,right,1,1,2.796957016,2.569629123,0.7695156536,2.796957016,2.796957016,2.796957016,1.383,0.74,0.58,0,0,,,,,P33,TLD,f,1592,duration,1
379,implicitTraining,1,,,,right,0,left,conflict,5,0.78,2.715218455,4,16,,,,,,,right,1,0,2.984680176,2.569629123,0.7695156536,2.984680176,2.984680176,2.984680176,1.383,0.74,0.58,0,0,,,,,P33,TLD,f,1592,duration,1
380,implicitTraining,1,,,,left,1,left,converge,2,0.42,1.483344223,4,17,,,,,,,left,1,1,3.109355927,2.569629123,0.7695156536,3.109355927,3.109355927,3.109355927,1.8,0.74,0.58,0,0,,,,,P33,TLD,f,1592,duration,1
381,implicitTraining,1,,,,left,0,right,conflict,3,0.54,1.893968967,4,18,,,,,,,left,1,0,3.519279003,2.569629123,0.7695156536,3.519279003,3.519279003,3.519279003,1.8,0.74,0.58,0,0,,,,,P33,TLD,f,1592,duration,1
382,implicitTraining,1,,,,right,1,right,converge,6,0.9,3.125843199,8,19,,,,,,,right,1,1,2.725165129,2.569629123,0.7695156536,2.725165129,2.725165129,2.725165129,1.383,0.74,0.58,0,0,,,,,P33,TLD,f,1592,duration,1
383,implicitTraining,1,,,,left,1,left,converge,3,0.54,1.893968967,8,20,,,,,,,left,1,1,6.707455873,2.569629123,0.7695156536,NA,6.707455873,NA,1.8,0.74,0.58,0,0,,,,,P33,TLD,f,1592,duration,1
384,implicitTraining,1,,,,right,1,right,converge,4,0.66,2.304593711,8,21,,,,,,,right,1,1,2.780699015,2.569629123,0.7695156536,2.780699015,2.780699015,2.780699015,1.383,0.74,0.58,0,0,,,,,P33,TLD,f,1592,duration,1
385,implicitTraining,1,,,,left,1,left,converge,2,0.42,1.483344223,8,22,,,,,,,left,1,1,3.708672047,2.569629123,0.7695156536,3.708672047,3.708672047,3.708672047,1.8,0.74,0.58,0,0,,,,,P33,TLD,f,1592,duration,1
386,implicitTraining,1,,,,left,0,right,conflict,1,0.3,1.07271948,8,23,,,,,,,left,1,0,6.701179981,2.569629123,0.7695156536,NA,6.701179981,NA,1.8,0.74,0.58,0,0,,,,,P33,TLD,f,1592,duration,1
387,implicitTraining,1,,,,right,1,right,converge,5,0.78,2.715218455,8,24,,,,,,,right,1,1,2.491440058,2.569629123,0.7695156536,2.491440058,2.491440058,2.491440058,1.383,0.74,0.58,0,0,,,,,P33,TLD,f,1592,duration,1
388,,,,,,,,,,,,,,,,,,,,,,,,,2.569629123,0.7695156536,NA,NA,0,,,0.58,,,,,,,P33,TLD,f,1592,duration,1
389,implicitTraining,2,,,,left,0,right,conflict,2,0.42,1.483344223,2,25,,,,,,,left,1,0,3.080764771,2.569629123,0.7695156536,3.080764771,3.080764771,3.080764771,1.8,0.74,0.58,0,0,,,,,P33,TLD,f,1592,duration,1
390,implicitTraining,2,,,,right,1,right,converge,5,0.78,2.715218455,2,26,,,,,,,left,0,0,0.5128259659,2.569629123,0.7695156536,0.5128259659,0.5128259659,0.5128259659,1.383,0.74,0.58,1,1,,,,,P33,TLD,f,1592,duration,1
391,implicitTraining,2,,,,left,1,left,converge,3,0.54,1.893968967,2,27,,,,,,,left,1,1,3.014818907,2.569629123,0.7695156536,3.014818907,3.014818907,3.014818907,1.8,0.74,0.58,0,0,,,,,P33,TLD,f,1592,duration,1
392,implicitTraining,2,,,,left,0,right,conflict,1,0.3,1.07271948,2,28,,,,,,,left,1,0,3.065523148,2.569629123,0.7695156536,3.065523148,3.065523148,3.065523148,1.8,0.74,0.58,0,0,,,,,P33,TLD,f,1592,duration,1
393,implicitTraining,2,,,,right,1,right,converge,6,0.9,3.125843199,2,29,,,,,,,right,1,1,2.860368967,2.569629123,0.7695156536,2.860368967,2.860368967,2.860368967,1.383,0.74,0.58,0,0,,,,,P33,TLD,f,1592,duration,1
394,implicitTraining,2,,,,right,0,left,conflict,4,0.66,2.304593711,2,30,,,,,,,right,1,0,2.516289949,2.569629123,0.7695156536,2.516289949,2.516289949,2.516289949,1.383,0.74,0.58,0,0,,,,,P33,TLD,f,1592,duration,1
395,implicitTraining,2,,,,right,0,left,conflict,6,0.9,3.125843199,6,31,,,,,,,right,1,0,3.067196131,2.569629123,0.7695156536,3.067196131,3.067196131,3.067196131,1.383,0.74,0.58,0,0,,,,,P33,TLD,f,1592,duration,1
396,implicitTraining,2,,,,left,1,left,converge,3,0.54,1.893968967,6,32,,,,,,,left,1,1,2.941476822,2.569629123,0.7695156536,2.941476822,2.941476822,2.941476822,1.8,0.74,0.58,0,0,,,,,P33,TLD,f,1592,duration,1
397,implicitTraining,2,,,,left,0,right,conflict,2,0.42,1.483344223,6,33,,,,,,,left,1,0,0.5193891525,2.569629123,0.7695156536,0.5193891525,0.5193891525,0.5193891525,1.8,0.74,0.58,1,1,,,,,P33,TLD,f,1592,duration,1
398,implicitTraining,2,,,,right,1,right,converge,4,0.66,2.304593711,6,34,,,,,,,right,1,1,3.410273075,2.569629123,0.7695156536,3.410273075,3.410273075,3.410273075,1.383,0.74,0.58,0,0,,,,,P33,TLD,f,1592,duration,1
399,implicitTraining,2,,,,left,1,left,converge,1,0.3,1.07271948,6,35,,,,,,,left,1,1,2.632046938,2.569629123,0.7695156536,2.632046938,2.632046938,2.632046938,1.8,0.74,0.58,0,0,,,,,P33,TLD,f,1592,duration,1
400,implicitTraining,2,,,,right,1,right,converge,5,0.78,2.715218455,6,36,,,,,,,right,1,1,2.371567965,2.569629123,0.7695156536,2.371567965,2.371567965,2.371567965,1.383,0.74,0.58,0,0,,,,,P33,TLD,f,1592,duration,1
401,implicitTraining,2,,,,left,1,left,converge,1,0.3,1.07271948,7,37,,,,,,,left,1,1,2.363796949,2.569629123,0.7695156536,2.363796949,2.363796949,2.363796949,1.8,0.74,0.58,1,1,,,,,P33,TLD,f,1592,duration,1
402,implicitTraining,2,,,,right,1,right,converge,4,0.66,2.304593711,7,38,,,,,,,right,1,1,3.260910034,2.569629123,0.7695156536,3.260910034,3.260910034,3.260910034,1.383,0.74,0.58,0,0,,,,,P33,TLD,f,1592,duration,1
403,implicitTraining,2,,,,right,0,left,conflict,6,0.9,3.125843199,7,39,,,,,,,right,1,0,2.533386946,2.569629123,0.7695156536,2.533386946,2.533386946,2.533386946,1.383,0.74,0.58,0,0,,,,,P33,TLD,f,1592,duration,1
404,implicitTraining,2,,,,left,1,left,converge,3,0.54,1.893968967,7,40,,,,,,,left,1,1,3.01018095,2.569629123,0.7695156536,3.01018095,3.01018095,3.01018095,1.8,0.74,0.58,0,0,,,,,P33,TLD,f,1592,duration,1
405,implicitTraining,2,,,,right,1,right,converge,5,0.78,2.715218455,7,41,,,,,,,right,1,1,2.459554911,2.569629123,0.7695156536,2.459554911,2.459554911,2.459554911,1.383,0.74,0.58,0,0,,,,,P33,TLD,f,1592,duration,1
406,implicitTraining,2,,,,left,1,left,converge,2,0.42,1.483344223,7,42,,,,,,,left,1,1,2.598879099,2.569629123,0.7695156536,2.598879099,2.598879099,2.598879099,1.8,0.74,0.58,0,0,,,,,P33,TLD,f,1592,duration,1
407,implicitTraining,2,,,,left,0,right,conflict,3,0.54,1.893968967,3,43,,,,,,,left,1,0,3.162146091,2.569629123,0.7695156536,3.162146091,3.162146091,3.162146091,1.8,0.74,0.58,0,0,,,,,P33,TLD,f,1592,duration,1
408,implicitTraining,2,,,,right,1,right,converge,6,0.9,3.125843199,3,44,,,,,,,right,1,1,2.345062971,2.569629123,0.7695156536,2.345062971,2.345062971,2.345062971,1.383,0.74,0.58,0,0,,,,,P33,TLD,f,1592,duration,1
409,implicitTraining,2,,,,left,1,left,converge,2,0.42,1.483344223,3,45,,,,,,,left,1,1,2.759523153,2.569629123,0.7695156536,2.759523153,2.759523153,2.759523153,1.8,0.74,0.58,0,0,,,,,P33,TLD,f,1592,duration,1
410,implicitTraining,2,,,,right,1,right,converge,5,0.78,2.715218455,3,46,,,,,,,left,0,0,1.361096144,2.569629123,0.7695156536,1.361096144,1.361096144,1.361096144,1.383,0.74,0.58,1,1,,,,,P33,TLD,f,1592,duration,1
411,implicitTraining,2,,,,right,0,left,conflict,4,0.66,2.304593711,3,47,,,,,,,right,1,0,2.467002869,2.569629123,0.7695156536,2.467002869,2.467002869,2.467002869,1.383,0.74,0.58,0,0,,,,,P33,TLD,f,1592,duration,1
412,implicitTraining,2,,,,left,1,left,converge,1,0.3,1.07271948,3,48,,,,,,,left,1,1,3.35701704,2.569629123,0.7695156536,3.35701704,3.35701704,3.35701704,1.8,0.74,0.58,0,0,,,,,P33,TLD,f,1592,duration,1
413,,,,,,,,,,,,,,,,,,,,,,,,,2.569629123,0.7695156536,NA,NA,0,,,0.58,,,,,,,P33,TLD,f,1592,duration,1
414,explicitTest,3,,,,left,0,right,conflict,1,0.3,1.07271948,1,49,,,,,,,,,0,,2.569629123,0.7695156536,NA,NA,0,1.8,0.74,0.58,0,0,left,1,0,5.55369997,P33,TLD,f,1592,duration,1
415,explicitTest,3,,,,right,1,right,converge,4,0.66,2.304593711,1,50,,,,,,,,,1,,2.569629123,0.7695156536,NA,NA,0,1.383,0.74,0.58,0,0,right,1,1,2.26493597,P33,TLD,f,1592,duration,1
416,explicitTest,3,,,,right,0,left,conflict,5,0.78,2.715218455,1,51,,,,,,,,,1,,2.569629123,0.7695156536,NA,NA,0,1.383,0.74,0.58,0,0,left,0,0,1.464540005,P33,TLD,f,1592,duration,1
417,explicitTest,3,,,,left,1,left,converge,3,0.54,1.893968967,1,52,,,,,,,,,1,,2.569629123,0.7695156536,NA,NA,0,1.8,0.74,0.58,0,0,left,1,0,2.365574837,P33,TLD,f,1592,duration,1
418,explicitTest,3,,,,left,0,right,conflict,2,0.42,1.483344223,1,53,,,,,,,,,1,,2.569629123,0.7695156536,NA,NA,0,1.8,0.74,0.58,0,0,right,0,1,1.996505976,P33,TLD,f,1592,duration,1
419,explicitTest,3,,,,right,1,right,converge,6,0.9,3.125843199,1,54,,,,,,,,,1,,2.569629123,0.7695156536,NA,NA,0,1.383,0.74,0.58,0,0,right,1,1,1.615108967,P33,TLD,f,1592,duration,1
420,explicitTest,3,,,,right,0,left,conflict,5,0.78,2.715218455,5,55,,,,,,,,,1,,2.569629123,0.7695156536,NA,NA,0,1.383,0.74,0.58,0,0,left,0,0,2.146371126,P33,TLD,f,1592,duration,1
421,explicitTest,3,,,,left,1,left,converge,2,0.42,1.483344223,5,56,,,,,,,,,1,,2.569629123,0.7695156536,NA,NA,0,1.8,0.74,0.58,0,0,left,1,0,1.398269176,P33,TLD,f,1592,duration,1
422,explicitTest,3,,,,left,0,right,conflict,1,0.3,1.07271948,5,57,,,,,,,,,1,,2.569629123,0.7695156536,NA,NA,0,1.8,0.74,0.58,0,0,right,0,1,2.546117067,P33,TLD,f,1592,duration,1
423,explicitTest,3,,,,right,1,right,converge,4,0.66,2.304593711,5,58,,,,,,,,,1,,2.569629123,0.7695156536,NA,NA,0,1.383,0.74,0.58,0,0,right,1,1,1.415517807,P33,TLD,f,1592,duration,1
424,explicitTest,3,,,,left,1,left,converge,3,0.54,1.893968967,5,59,,,,,,,,,1,,2.569629123,0.7695156536,NA,NA,0,1.8,0.74,0.58,0,0,left,1,0,1.446611881,P33,TLD,f,1592,duration,1
425,explicitTest,3,,,,right,1,right,converge,6,0.9,3.125843199,5,60,,,,,,,,,1,,2.569629123,0.7695156536,NA,NA,0,1.383,0.74,0.58,0,0,right,1,1,1.815572977,P33,TLD,f,1592,duration,1
426,explicitTest,3,,,,right,0,left,conflict,4,0.66,2.304593711,4,61,,,,,,,,,1,,2.569629123,0.7695156536,NA,NA,0,1.383,0.74,0.58,0,0,left,0,0,3.231117964,P33,TLD,f,1592,duration,1
427,explicitTest,3,,,,left,1,left,converge,1,0.3,1.07271948,4,62,,,,,,,,,1,,2.569629123,0.7695156536,NA,NA,0,1.8,0.74,0.58,0,0,left,1,0,0.1333010197,P33,TLD,f,1592,duration,1
428,explicitTest,3,,,,right,1,right,converge,6,0.9,3.125843199,4,63,,,,,,,,,1,,2.569629123,0.7695156536,NA,NA,0,1.383,0.74,0.58,0,0,right,1,1,1.829936028,P33,TLD,f,1592,duration,1
429,explicitTest,3,,,,right,0,left,conflict,5,0.78,2.715218455,4,64,,,,,,,,,1,,2.569629123,0.7695156536,NA,NA,0,1.383,0.74,0.58,0,0,left,0,0,0.6818950176,P33,TLD,f,1592,duration,1
430,explicitTest,3,,,,left,1,left,converge,2,0.42,1.483344223,4,65,,,,,,,,,1,,2.569629123,0.7695156536,NA,NA,0,1.8,0.74,0.58,0,0,left,1,0,2.04637599,P33,TLD,f,1592,duration,1
431,explicitTest,3,,,,left,0,right,conflict,3,0.54,1.893968967,4,66,,,,,,,,,0,,2.569629123,0.7695156536,NA,NA,0,1.8,0.74,0.58,0,0,left,1,0,2.04755187,P33,TLD,f,1592,duration,1
432,explicitTest,3,,,,right,1,right,converge,6,0.9,3.125843199,8,67,,,,,,,,,1,,2.569629123,0.7695156536,NA,NA,0,1.383,0.74,0.58,0,0,right,1,1,0.9659340382,P33,TLD,f,1592,duration,1
433,explicitTest,3,,,,left,1,left,converge,3,0.54,1.893968967,8,68,,,,,,,,,1,,2.569629123,0.7695156536,NA,NA,0,1.8,0.74,0.58,0,0,left,1,0,1.315149069,P33,TLD,f,1592,duration,1
434,explicitTest,3,,,,right,1,right,converge,4,0.66,2.304593711,8,69,,,,,,,,,1,,2.569629123,0.7695156536,NA,NA,0,1.383,0.74,0.58,0,0,right,1,1,1.616520882,P33,TLD,f,1592,duration,1
435,explicitTest,3,,,,left,1,left,converge,2,0.42,1.483344223,8,70,,,,,,,,,1,,2.569629123,0.7695156536,NA,NA,0,1.8,0.74,0.58,0,0,left,1,0,2.281219006,P33,TLD,f,1592,duration,1
436,explicitTest,3,,,,left,0,right,conflict,1,0.3,1.07271948,8,71,,,,,,,,,0,,2.569629123,0.7695156536,NA,NA,0,1.8,0.74,0.58,0,0,left,1,0,2.080229044,P33,TLD,f,1592,duration,1
437,explicitTest,3,,,,right,1,right,converge,5,0.78,2.715218455,8,72,,,,,,,,,1,,2.569629123,0.7695156536,NA,NA,0,1.383,0.74,0.58,0,0,right,1,1,0.7324988842,P33,TLD,f,1592,duration,1
438,,,,,,,,,,,,,,1,,,,,,,,,,,2.569629123,0.7695156536,NA,NA,0,,,0.58,,,,,,,P33,TLD,f,1592,duration,1
439,,,,,,,,,,,,,,2,,,,,,,,,,,2.569629123,0.7695156536,NA,NA,0,,,0.58,,,,,,,P33,TLD,f,1592,duration,1
460,phase,block,Sound1,Sound2,category,side,,,,soundfileNum,duration_dur,pitch_pitch,blockOrig,trial,discrimStim.thisTrialN,discrimStim.thisIndex,key_resp_14.keys,0,#N/A,key_resp_14.rt,resp_1.keys,resp_1.corr,,resp_1.rt,2.530398369,0.4765131394,NA,resp_1.rt,NA,1.383,0.66,0.58,0,0,key_resp_20.keys,key_resp_20.corr,0,key_resp_20.rt,participant,DLD,m,1655,version,list
575,phase,block,Sound1,Sound2,category,side,,,,soundfileNum,duration_dur,pitch_pitch,blockOrig,trial,discrimStim.thisTrialN,discrimStim.thisIndex,key_resp_14.keys,0,#N/A,key_resp_14.rt,resp_1.keys,resp_1.corr,,resp_1.rt,2.530398369,0.4765131394,NA,resp_1.rt,NA,1.383,0.66,0.58,0,0,key_resp_20.keys,key_resp_20.corr,0,key_resp_20.rt,participant,DLD,m,1655,version,list
690,phase,block,Sound1,Sound2,category,side,,,,duration_dur,pitch_pitch,toy1file_explicit,sound_pitch,trial,discrimStim.thisTrialN,discrimStim.thisIndex,key_resp_14.keys,0,#N/A,key_resp_14.rt,resp_1.keys,resp_1.corr,,resp_1.rt,2.530398369,0.4765131394,NA,resp_1.rt,NA,1.383,0.66,0.58,0,0,key_resp_20.keys,key_resp_20.corr,0,key_resp_20.rt,participant,DLD,m,1655,version,list
691,pretest,1,/Users/Tweety/Desktop/K99preschoolImplicit/ramped/oneDdur_8.wav,/Users/Tweety/Desktop/K99preschoolImplicit/ramped/oneDdur_12.wav,D,,,,,,,,,,0,7,d,1,4,8.315531969,,,,,2.325464745,0.3618631203,NA,NA,0,,,0.58,,,,,,,P37,TLD,f,1839,duration,3
692,pretest,1,/Users/Tweety/Desktop/K99preschoolImplicit/ramped/oneDdur_11.wav,/Users/Tweety/Desktop/K99preschoolImplicit/ramped/oneDdur_7.wav,D,,,,,,,,,,1,4,d,1,4,4.831525087,,,,,2.325464745,0.3618631203,NA,NA,0,,,0.58,,,,,,,P37,TLD,f,1839,duration,3
693,pretest,1,/Users/Tweety/Desktop/K99preschoolImplicit/ramped/oneDdur_12.wav,/Users/Tweety/Desktop/K99preschoolImplicit/ramped/oneDdur_7.wav,D,,,,,,,,,,2,5,d,1,5,12.34134388,,,,,2.325464745,0.3618631203,NA,NA,0,,,0.58,,,,,,,P37,TLD,f,1839,duration,3
694,pretest,1,/Users/Tweety/Desktop/K99preschoolImplicit/ramped/oneDdur_7.wav,/Users/Tweety/Desktop/K99preschoolImplicit/ramped/oneDdur_7.wav,S,,,,,,,,,,3,0,s,1,0,6.281244993,,,,,2.325464745,0.3618631203,NA,NA,0,,,0.58,,,,,,,P37,TLD,f,1839,duration,3
695,pretest,1,/Users/Tweety/Desktop/K99preschoolImplicit/ramped/oneDdur_12.wav,/Users/Tweety/Desktop/K99preschoolImplicit/ramped/oneDdur_10.wav,D,,,,,,,,,,4,9,s,0,2,4.894441843,,,,,2.325464745,0.3618631203,NA,NA,0,,,0.58,,,,,,,P37,TLD,f,1839,duration,3
696,pretest,1,/Users/Tweety/Desktop/K99preschoolImplicit/ramped/oneDdur_7.wav,/Users/Tweety/Desktop/K99preschoolImplicit/ramped/oneDdur_9.wav,D,,,,,,,,,,5,2,d,1,2,5.180604219,,,,,2.325464745,0.3618631203,NA,NA,0,,,0.58,,,,,,,P37,TLD,f,1839,duration,3
697,pretest,1,/Users/Tweety/Desktop/K99preschoolImplicit/ramped/oneDdur_9.wav,/Users/Tweety/Desktop/K99preschoolImplicit/ramped/oneDdur_12.wav,D,,,,,,,,,,6,8,s,0,3,7.26284194,,,,,2.325464745,0.3618631203,NA,NA,0,,,0.58,,,,,,,P37,TLD,f,1839,duration,3
698,pretest,1,/Users/Tweety/Desktop/K99preschoolImplicit/ramped/oneDdur_10.wav,/Users/Tweety/Desktop/K99preschoolImplicit/ramped/oneDdur_7.wav,D,,,,,,,,,,7,3,d,1,3,4.846095085,,,,,2.325464745,0.3618631203,NA,NA,0,,,0.58,,,,,,,P37,TLD,f,1839,duration,3
699,pretest,1,/Users/Tweety/Desktop/K99preschoolImplicit/ramped/oneDdur_7.wav,/Users/Tweety/Desktop/K99preschoolImplicit/ramped/oneDdur_12.wav,D,,,,,,,,,,8,6,d,1,5,15.05865908,,,,,2.325464745,0.3618631203,NA,NA,0,,,0.58,,,,,,,P37,TLD,f,1839,duration,3
700,pretest,1,/Users/Tweety/Desktop/K99preschoolImplicit/ramped/oneDdur_12.wav,/Users/Tweety/Desktop/K99preschoolImplicit/ramped/oneDdur_11.wav,D,,,,,,,,,,9,10,s,0,1,4.646609068,,,,,2.325464745,0.3618631203,NA,NA,0,,,0.58,,,,,,,P37,TLD,f,1839,duration,3
701,pretest,1,/Users/Tweety/Desktop/K99preschoolImplicit/ramped/oneDdur_7.wav,/Users/Tweety/Desktop/K99preschoolImplicit/ramped/oneDdur_8.wav,D,,,,,,,,,,10,1,s,0,1,5.679199934,,,,,2.325464745,0.3618631203,NA,NA,0,,,0.58,,,,,,,P37,TLD,f,1839,duration,3
702,pretest,1,/Users/Tweety/Desktop/K99preschoolImplicit/ramped/oneDdur_12.wav,/Users/Tweety/Desktop/K99preschoolImplicit/ramped/oneDdur_12.wav,S,,,,,,,,,,11,11,s,1,0,4.83028388,,,,,2.325464745,0.3618631203,NA,NA,0,,,0.58,,,,,,,P37,TLD,f,1839,duration,3
703,,,,,,,,,,,,,,,,,,,,,,,,,2.325464745,0.3618631203,NA,NA,0,,,0.58,,,,,,,P37,TLD,f,1839,duration,3
704,taskTrain,1,,,,left,,,,,,,,,,,,,,,,,,,2.325464745,0.3618631203,NA,NA,0,1.8,0.58,0.58,0,0,,,,,P37,TLD,f,1839,duration,3
705,taskTrain,1,,,,right,,,,,,,,,,,,,,,,,,,2.325464745,0.3618631203,NA,NA,0,1.383,0.58,0.58,0,0,,,,,P37,TLD,f,1839,duration,3
706,taskTrain,1,,,,right,,,,,,,,,,,,,,,,,,,2.325464745,0.3618631203,NA,NA,0,1.383,0.58,0.58,0,0,,,,,P37,TLD,f,1839,duration,3
707,taskTrain,1,,,,left,,,,,,,,,,,,,,,,,,,2.325464745,0.3618631203,NA,NA,0,1.8,0.58,0.58,0,0,,,,,P37,TLD,f,1839,duration,3
708,,,,,,,,,,,,,,,,,,,,,,,,,2.325464745,0.3618631203,NA,NA,0,,,0.58,,,,,,,P37,TLD,f,1839,duration,3
709,implicitTraining,1,,,,left,0,,,3,0.54,1.893968967,3,1,,,,,,,left,1,,1.066798925,2.325464745,0.3618631203,NA,NA,1.066798925,1.8,0.58,0.58,0,0,,,,,P37,TLD,f,1839,duration,3
710,implicitTraining,1,,,,right,1,right,converge,6,0.9,3.125843199,3,2,,,,,,,left,0,0,1.752730846,2.325464745,0.3618631203,1.752730846,1.752730846,1.752730846,1.383,0.58,0.58,1,1,,,,,P37,TLD,f,1839,duration,3
711,implicitTraining,1,,,,left,1,left,converge,2,0.42,1.483344223,3,3,,,,,,,left,1,1,0.7297430038,2.325464745,0.3618631203,NA,NA,0.7297430038,1.8,0.58,0.58,0,0,,,,,P37,TLD,f,1839,duration,3
712,implicitTraining,1,,,,right,1,right,converge,5,0.78,2.715218455,3,4,,,,,,,left,0,0,0.5118288994,2.325464745,0.3618631203,NA,NA,0.5118288994,1.383,0.58,0.58,0,0,,,,,P37,TLD,f,1839,duration,3
713,implicitTraining,1,,,,right,0,left,conflict,4,0.66,2.304593711,3,5,,,,,,,right,1,0,2.263468027,2.325464745,0.3618631203,2.263468027,2.263468027,2.263468027,1.383,0.58,0.58,0,0,,,,,P37,TLD,f,1839,duration,3
714,implicitTraining,1,,,,left,1,left,converge,1,0.3,1.07271948,3,6,,,,,,,left,1,1,2.276830912,2.325464745,0.3618631203,2.276830912,2.276830912,2.276830912,1.8,0.58,0.58,1,1,,,,,P37,TLD,f,1839,duration,3
715,implicitTraining,1,,,,left,0,right,conflict,2,0.42,1.483344223,2,7,,,,,,,left,1,0,2.270848989,2.325464745,0.3618631203,2.270848989,2.270848989,2.270848989,1.8,0.58,0.58,1,1,,,,,P37,TLD,f,1839,duration,3
716,implicitTraining,1,,,,right,1,right,converge,5,0.78,2.715218455,2,8,,,,,,,right,1,1,2.526389122,2.325464745,0.3618631203,2.526389122,2.526389122,2.526389122,1.383,0.58,0.58,0,0,,,,,P37,TLD,f,1839,duration,3
717,implicitTraining,1,,,,left,1,left,converge,3,0.54,1.893968967,2,9,,,,,,,left,1,1,2.697201967,2.325464745,0.3618631203,2.697201967,2.697201967,2.697201967,1.8,0.58,0.58,0,0,,,,,P37,TLD,f,1839,duration,3
718,implicitTraining,1,,,,left,0,right,conflict,1,0.3,1.07271948,2,10,,,,,,,right,0,1,1.76879406,2.325464745,0.3618631203,1.76879406,1.76879406,1.76879406,1.8,0.58,0.58,1,1,,,,,P37,TLD,f,1839,duration,3
719,implicitTraining,1,,,,right,1,right,converge,6,0.9,3.125843199,2,11,,,,,,,right,1,1,0.8291749954,2.325464745,0.3618631203,NA,NA,0.8291749954,1.383,0.58,0.58,0,0,,,,,P37,TLD,f,1839,duration,3
720,implicitTraining,1,,,,right,0,left,conflict,4,0.66,2.304593711,2,12,,,,,,,right,1,0,0.5177760124,2.325464745,0.3618631203,NA,NA,0.5177760124,1.383,0.58,0.58,0,0,,,,,P37,TLD,f,1839,duration,3
721,implicitTraining,1,,,,right,0,left,conflict,6,0.9,3.125843199,6,13,,,,,,,right,1,0,2.587496996,2.325464745,0.3618631203,2.587496996,2.587496996,2.587496996,1.383,0.58,0.58,0,0,,,,,P37,TLD,f,1839,duration,3
722,implicitTraining,1,,,,left,1,left,converge,3,0.54,1.893968967,6,14,,,,,,,left,1,1,1.855648994,2.325464745,0.3618631203,1.855648994,1.855648994,1.855648994,1.8,0.58,0.58,1,1,,,,,P37,TLD,f,1839,duration,3
723,implicitTraining,1,,,,left,0,right,conflict,2,0.42,1.483344223,6,15,,,,,,,left,1,0,2.752075911,2.325464745,0.3618631203,2.752075911,2.752075911,2.752075911,1.8,0.58,0.58,0,0,,,,,P37,TLD,f,1839,duration,3
724,implicitTraining,1,,,,right,1,right,converge,4,0.66,2.304593711,6,16,,,,,,,right,1,1,2.360399961,2.325464745,0.3618631203,2.360399961,2.360399961,2.360399961,1.383,0.58,0.58,0,0,,,,,P37,TLD,f,1839,duration,3
725,implicitTraining,1,,,,left,1,left,converge,1,0.3,1.07271948,6,17,,,,,,,left,1,1,2.54834199,2.325464745,0.3618631203,2.54834199,2.54834199,2.54834199,1.8,0.58,0.58,0,0,,,,,P37,TLD,f,1839,duration,3
726,implicitTraining,1,,,,right,1,right,converge,5,0.78,2.715218455,6,18,,,,,,,right,1,1,2.508332968,2.325464745,0.3618631203,2.508332968,2.508332968,2.508332968,1.383,0.58,0.58,0,0,,,,,P37,TLD,f,1839,duration,3
727,implicitTraining,1,,,,right,0,left,conflict,5,0.78,2.715218455,5,19,,,,,,,right,1,0,2.615767956,2.325464745,0.3618631203,2.615767956,2.615767956,2.615767956,1.383,0.58,0.58,0,0,,,,,P37,TLD,f,1839,duration,3
728,implicitTraining,1,,,,left,1,left,converge,2,0.42,1.483344223,5,20,,,,,,,right,0,0,2.795542955,2.325464745,0.3618631203,2.795542955,2.795542955,2.795542955,1.8,0.58,0.58,0,0,,,,,P37,TLD,f,1839,duration,3
729,implicitTraining,1,,,,left,0,right,conflict,1,0.3,1.07271948,5,21,,,,,,,left,1,0,2.783097982,2.325464745,0.3618631203,2.783097982,2.783097982,2.783097982,1.8,0.58,0.58,0,0,,,,,P37,TLD,f,1839,duration,3
730,implicitTraining,1,,,,right,1,right,converge,4,0.66,2.304593711,5,22,,,,,,,right,1,1,2.56443119,2.325464745,0.3618631203,2.56443119,2.56443119,2.56443119,1.383,0.58,0.58,0,0,,,,,P37,TLD,f,1839,duration,3
731,implicitTraining,1,,,,left,1,left,converge,3,0.54,1.893968967,5,23,,,,,,,left,1,1,2.779644012,2.325464745,0.3618631203,2.779644012,2.779644012,2.779644012,1.8,0.58,0.58,0,0,,,,,P37,TLD,f,1839,duration,3
732,implicitTraining,1,,,,right,1,right,converge,6,0.9,3.125843199,5,24,,,,,,,right,1,1,2.547865152,2.325464745,0.3618631203,2.547865152,2.547865152,2.547865152,1.383,0.58,0.58,0,0,,,,,P37,TLD,f,1839,duration,3
733,,,,,,,,,,,,,,,,,,,,,,,,,2.325464745,0.3618631203,NA,NA,0,,,0.58,,,,,,,P37,TLD,f,1839,duration,3
734,implicitTraining,2,,,,right,0,left,conflict,6,0.9,3.125843199,8,25,,,,,,,right,1,0,2.271022081,2.325464745,0.3618631203,2.271022081,2.271022081,2.271022081,1.383,0.58,0.58,0,0,,,,,P37,TLD,f,1839,duration,3
735,implicitTraining,2,,,,left,1,left,converge,3,0.54,1.893968967,8,26,,,,,,,left,1,1,2.658674002,2.325464745,0.3618631203,2.658674002,2.658674002,2.658674002,1.8,0.58,0.58,0,0,,,,,P37,TLD,f,1839,duration,3
736,implicitTraining,2,,,,right,1,right,converge,4,0.66,2.304593711,8,27,,,,,,,right,1,1,2.228564024,2.325464745,0.3618631203,2.228564024,2.228564024,2.228564024,1.383,0.58,0.58,0,0,,,,,P37,TLD,f,1839,duration,3
737,implicitTraining,2,,,,left,1,left,converge,2,0.42,1.483344223,8,28,,,,,,,left,1,1,2.579581022,2.325464745,0.3618631203,2.579581022,2.579581022,2.579581022,1.8,0.58,0.58,0,0,,,,,P37,TLD,f,1839,duration,3
738,implicitTraining,2,,,,left,0,right,conflict,1,0.3,1.07271948,8,29,,,,,,,right,0,1,1.33240509,2.325464745,0.3618631203,1.33240509,1.33240509,1.33240509,1.8,0.58,0.58,1,1,,,,,P37,TLD,f,1839,duration,3
739,implicitTraining,2,,,,right,1,right,converge,5,0.78,2.715218455,8,30,,,,,,,right,1,1,2.260782003,2.325464745,0.3618631203,2.260782003,2.260782003,2.260782003,1.383,0.58,0.58,0,0,,,,,P37,TLD,f,1839,duration,3
740,implicitTraining,2,,,,left,1,left,converge,1,0.3,1.07271948,1,31,,,,,,,left,1,1,2.578342915,2.325464745,0.3618631203,2.578342915,2.578342915,2.578342915,1.8,0.58,0.58,0,0,,,,,P37,TLD,f,1839,duration,3
741,implicitTraining,2,,,,right,1,right,converge,4,0.66,2.304593711,1,32,,,,,,,right,1,1,2.064057112,2.325464745,0.3618631203,2.064057112,2.064057112,2.064057112,1.383,0.58,0.58,0,0,,,,,P37,TLD,f,1839,duration,3
742,implicitTraining,2,,,,right,0,left,conflict,5,0.78,2.715218455,1,33,,,,,,,right,1,0,2.383753777,2.325464745,0.3618631203,2.383753777,2.383753777,2.383753777,1.383,0.58,0.58,0,0,,,,,P37,TLD,f,1839,duration,3
743,implicitTraining,2,,,,left,1,left,converge,3,0.54,1.893968967,1,34,,,,,,,left,1,1,2.557632923,2.325464745,0.3618631203,2.557632923,2.557632923,2.557632923,1.8,0.58,0.58,0,0,,,,,P37,TLD,f,1839,duration,3
744,implicitTraining,2,,,,left,0,right,conflict,2,0.42,1.483344223,1,35,,,,,,,left,1,0,2.56945014,2.325464745,0.3618631203,2.56945014,2.56945014,2.56945014,1.8,0.58,0.58,0,0,,,,,P37,TLD,f,1839,duration,3
745,implicitTraining,2,,,,right,1,right,converge,6,0.9,3.125843199,1,36,,,,,,,right,1,1,2.394768953,2.325464745,0.3618631203,2.394768953,2.394768953,2.394768953,1.383,0.58,0.58,0,0,,,,,P37,TLD,f,1839,duration,3
746,implicitTraining,2,,,,left,1,left,converge,1,0.3,1.07271948,7,37,,,,,,,left,1,1,2.61473608,2.325464745,0.3618631203,2.61473608,2.61473608,2.61473608,1.8,0.58,0.58,0,0,,,,,P37,TLD,f,1839,duration,3
747,implicitTraining,2,,,,right,1,right,converge,4,0.66,2.304593711,7,38,,,,,,,right,1,1,2.53819108,2.325464745,0.3618631203,2.53819108,2.53819108,2.53819108,1.383,0.58,0.58,0,0,,,,,P37,TLD,f,1839,duration,3
748,implicitTraining,2,,,,right,0,left,conflict,6,0.9,3.125843199,7,39,,,,,,,left,0,1,2.082919121,2.325464745,0.3618631203,2.082919121,2.082919121,2.082919121,1.383,0.58,0.58,0,0,,,,,P37,TLD,f,1839,duration,3
749,implicitTraining,2,,,,left,1,left,converge,3,0.54,1.893968967,7,40,,,,,,,left,1,1,2.793061018,2.325464745,0.3618631203,2.793061018,2.793061018,2.793061018,1.8,0.58,0.58,0,0,,,,,P37,TLD,f,1839,duration,3
750,implicitTraining,2,,,,right,1,right,converge,5,0.78,2.715218455,7,41,,,,,,,right,1,1,2.047642946,2.325464745,0.3618631203,2.047642946,2.047642946,2.047642946,1.383,0.58,0.58,0,0,,,,,P37,TLD,f,1839,duration,3
751,implicitTraining,2,,,,left,1,left,converge,2,0.42,1.483344223,7,42,,,,,,,left,1,1,2.421249151,2.325464745,0.3618631203,2.421249151,2.421249151,2.421249151,1.8,0.58,0.58,0,0,,,,,P37,TLD,f,1839,duration,3
752,implicitTraining,2,,,,right,1,right,converge,4,0.66,2.304593711,4,43,,,,,,,right,1,1,2.213670969,2.325464745,0.3618631203,2.213670969,2.213670969,2.213670969,1.383,0.58,0.58,0,0,,,,,P37,TLD,f,1839,duration,3
753,implicitTraining,2,,,,left,1,left,converge,1,0.3,1.07271948,4,44,,,,,,,left,1,1,2.445108891,2.325464745,0.3618631203,2.445108891,2.445108891,2.445108891,1.8,0.58,0.58,0,0,,,,,P37,TLD,f,1839,duration,3
754,implicitTraining,2,,,,right,1,right,converge,6,0.9,3.125843199,4,45,,,,,,,right,1,1,2.063259125,2.325464745,0.3618631203,2.063259125,2.063259125,2.063259125,1.383,0.58,0.58,0,0,,,,,P37,TLD,f,1839,duration,3
755,implicitTraining,2,,,,right,0,left,conflict,5,0.78,2.715218455,4,46,,,,,,,left,0,1,1.434899807,2.325464745,0.3618631203,1.434899807,1.434899807,1.434899807,1.383,0.58,0.58,1,1,,,,,P37,TLD,f,1839,duration,3
756,implicitTraining,2,,,,left,1,left,converge,2,0.42,1.483344223,4,47,,,,,,,left,1,1,2.608231783,2.325464745,0.3618631203,2.608231783,2.608231783,2.608231783,1.8,0.58,0.58,0,0,,,,,P37,TLD,f,1839,duration,3
757,implicitTraining,2,,,,left,0,right,conflict,3,0.54,1.893968967,4,48,,,,,,,left,1,0,2.669149876,2.325464745,0.3618631203,2.669149876,2.669149876,2.669149876,1.8,0.58,0.58,0,0,,,,,P37,TLD,f,1839,duration,3
758,,,,,,,,,,,,,,,,,,,,,,,,,2.325464745,0.3618631203,NA,NA,0,,,0.58,,,,,,,P37,TLD,f,1839,duration,3
759,explicitTest,3,,,,left,0,right,conflict,3,0.54,1.893968967,3,49,,,,,,,,,0,,2.325464745,0.3618631203,NA,NA,0,1.8,0.58,0.58,0,0,left,1,0,3.710798025,P37,TLD,f,1839,duration,3
760,explicitTest,3,,,,right,1,right,converge,6,0.9,3.125843199,3,50,,,,,,,,,1,,2.325464745,0.3618631203,NA,NA,0,1.383,0.58,0.58,0,0,right,1,1,3.183483124,P37,TLD,f,1839,duration,3
761,explicitTest,3,,,,left,1,left,converge,2,0.42,1.483344223,3,51,,,,,,,,,1,,2.325464745,0.3618631203,NA,NA,0,1.8,0.58,0.58,0,0,left,1,0,2.981008053,P37,TLD,f,1839,duration,3
762,explicitTest,3,,,,right,1,right,converge,5,0.78,2.715218455,3,52,,,,,,,,,1,,2.325464745,0.3618631203,NA,NA,0,1.383,0.58,0.58,0,0,right,1,1,1.715579987,P37,TLD,f,1839,duration,3
763,explicitTest,3,,,,right,0,left,conflict,4,0.66,2.304593711,3,53,,,,,,,,,1,,2.325464745,0.3618631203,NA,NA,0,1.383,0.58,0.58,0,0,left,0,0,0.7658278942,P37,TLD,f,1839,duration,3
764,explicitTest,3,,,,left,1,left,converge,1,0.3,1.07271948,3,54,,,,,,,,,0,,2.325464745,0.3618631203,NA,NA,0,1.8,0.58,0.58,0,0,right,0,1,0.01550412178,P37,TLD,f,1839,duration,3
765,explicitTest,3,,,,left,0,right,conflict,2,0.42,1.483344223,2,55,,,,,,,,,0,,2.325464745,0.3618631203,NA,NA,0,1.8,0.58,0.58,0,0,left,1,0,5.864526033,P37,TLD,f,1839,duration,3
766,explicitTest,3,,,,right,1,right,converge,5,0.78,2.715218455,2,56,,,,,,,,,1,,2.325464745,0.3618631203,NA,NA,0,1.383,0.58,0.58,0,0,right,1,1,5.91117692,P37,TLD,f,1839,duration,3
767,explicitTest,3,,,,left,1,left,converge,3,0.54,1.893968967,2,57,,,,,,,,,1,,2.325464745,0.3618631203,NA,NA,0,1.8,0.58,0.58,0,0,left,1,0,1.348424912,P37,TLD,f,1839,duration,3
768,explicitTest,3,,,,left,0,right,conflict,1,0.3,1.07271948,2,58,,,,,,,,,1,,2.325464745,0.3618631203,NA,NA,0,1.8,0.58,0.58,0,0,right,0,1,1.399190187,P37,TLD,f,1839,duration,3
769,explicitTest,3,,,,right,1,right,converge,6,0.9,3.125843199,2,59,,,,,,,,,1,,2.325464745,0.3618631203,NA,NA,0,1.383,0.58,0.58,0,0,right,1,1,0.1651191711,P37,TLD,f,1839,duration,3
770,explicitTest,3,,,,right,0,left,conflict,4,0.66,2.304593711,2,60,,,,,,,,,0,,2.325464745,0.3618631203,NA,NA,0,1.383,0.58,0.58,0,0,right,1,1,1.130413055,P37,TLD,f,1839,duration,3
771,explicitTest,3,,,,right,0,left,conflict,6,0.9,3.125843199,6,61,,,,,,,,,0,,2.325464745,0.3618631203,NA,NA,0,1.383,0.58,0.58,0,0,right,1,1,0.2990739346,P37,TLD,f,1839,duration,3
772,explicitTest,3,,,,left,1,left,converge,3,0.54,1.893968967,6,62,,,,,,,,,0,,2.325464745,0.3618631203,NA,NA,0,1.8,0.58,0.58,0,0,right,0,1,0.8307449818,P37,TLD,f,1839,duration,3
773,explicitTest,3,,,,left,0,right,conflict,2,0.42,1.483344223,6,63,,,,,,,,,1,,2.325464745,0.3618631203,NA,NA,0,1.8,0.58,0.58,0,0,right,0,1,3.365922928,P37,TLD,f,1839,duration,3
774,explicitTest,3,,,,right,1,right,converge,4,0.66,2.304593711,6,64,,,,,,,,,0,,2.325464745,0.3618631203,NA,NA,0,1.383,0.58,0.58,0,0,left,0,0,2.298211813,P37,TLD,f,1839,duration,3
775,explicitTest,3,,,,left,1,left,converge,1,0.3,1.07271948,6,65,,,,,,,,,0,,2.325464745,0.3618631203,NA,NA,0,1.8,0.58,0.58,0,0,right,0,1,0.03261804581,P37,TLD,f,1839,duration,3
776,explicitTest,3,,,,right,1,right,converge,5,0.78,2.715218455,6,66,,,,,,,,,1,,2.325464745,0.3618631203,NA,NA,0,1.383,0.58,0.58,0,0,right,1,1,8.045378923,P37,TLD,f,1839,duration,3
777,explicitTest,3,,,,right,0,left,conflict,5,0.78,2.715218455,5,67,,,,,,,,,1,,2.325464745,0.3618631203,NA,NA,0,1.383,0.58,0.58,0,0,left,0,0,5.495409012,P37,TLD,f,1839,duration,3
778,explicitTest,3,,,,left,1,left,converge,2,0.42,1.483344223,5,68,,,,,,,,,1,,2.325464745,0.3618631203,NA,NA,0,1.8,0.58,0.58,0,0,left,1,0,6.595549822,P37,TLD,f,1839,duration,3
779,explicitTest,3,,,,left,0,right,conflict,1,0.3,1.07271948,5,69,,,,,,,,,0,,2.325464745,0.3618631203,NA,NA,0,1.8,0.58,0.58,0,0,left,1,0,3.146619082,P37,TLD,f,1839,duration,3
780,explicitTest,3,,,,right,1,right,converge,4,0.66,2.304593711,5,70,,,,,,,,,0,,2.325464745,0.3618631203,NA,NA,0,1.383,0.58,0.58,0,0,left,0,0,2.265619993,P37,TLD,f,1839,duration,3
781,explicitTest,3,,,,left,1,left,converge,3,0.54,1.893968967,5,71,,,,,,,,,1,,2.325464745,0.3618631203,NA,NA,0,1.8,0.58,0.58,0,0,left,1,0,5.512290955,P37,TLD,f,1839,duration,3
782,explicitTest,3,,,,right,1,right,converge,6,0.9,3.125843199,5,72,,,,,,,,,1,,2.325464745,0.3618631203,NA,NA,0,1.383,0.58,0.58,0,0,right,1,1,3.328548908,P37,TLD,f,1839,duration,3
783,,,,,,,,,,,,,,1,,,,,,,,,,,2.325464745,0.3618631203,NA,NA,0,,,0.58,,,,,,,P37,TLD,f,1839,duration,3
784,,,,,,,,,,,,,,2,,,,,,,,,,,2.325464745,0.3618631203,NA,NA,0,,,0.58,,,,,,,P37,TLD,f,1839,duration,3
805,phase,block,Sound1,Sound2,category,side,,,,soundfileNum,duration_dur,pitch_pitch,blockOrig,trial,discrimStim.thisTrialN,discrimStim.thisIndex,key_resp_14.keys,0,#N/A,key_resp_14.rt,resp_1.keys,resp_1.corr,,resp_1.rt,2.530398369,0.4765131394,NA,resp_1.rt,NA,1.383,0.66,0.58,0,0,key_resp_20.keys,key_resp_20.corr,0,key_resp_20.rt,participant,DLD,m,1655,version,list
920,phase,block,Sound1,Sound2,category,side,,,,duration_dur,pitch_pitch,toy1file_explicit,sound_pitch,trial,discrimStim.thisTrialN,discrimStim.thisIndex,key_resp_14.keys,0,#N/A,key_resp_14.rt,resp_1.keys,resp_1.corr,,resp_1.rt,2.530398369,0.4765131394,NA,resp_1.rt,NA,1.383,0.66,0.58,0,0,key_resp_20.keys,key_resp_20.corr,0,key_resp_20.rt,participant,DLD,m,1655,version,list
921,pretest,1,/Users/Tweety/Desktop/K99preschoolImplicit/ramped/oneDdur_7.wav,/Users/Tweety/Desktop/K99preschoolImplicit/ramped/oneDdur_8.wav,D,,,,,,,,,,0,1,s,0,1,6.359804869,,,,,2.544382264,1.194203074,0,0,0,,,0.58,,,,,,,P39,TLD,m,1779,duration,2
922,pretest,1,/Users/Tweety/Desktop/K99preschoolImplicit/ramped/oneDdur_10.wav,/Users/Tweety/Desktop/K99preschoolImplicit/ramped/oneDdur_7.wav,D,,,,,,,,,,1,3,s,0,3,4.936994076,,,,,2.544382264,1.194203074,0,0,0,,,0.58,,,,,,,P39,TLD,m,1779,duration,2
923,pretest,1,/Users/Tweety/Desktop/K99preschoolImplicit/ramped/oneDdur_12.wav,/Users/Tweety/Desktop/K99preschoolImplicit/ramped/oneDdur_11.wav,D,,,,,,,,,,2,10,s,0,1,4.479655981,,,,,2.544382264,1.194203074,0,0,0,,,0.58,,,,,,,P39,TLD,m,1779,duration,2
924,pretest,1,/Users/Tweety/Desktop/K99preschoolImplicit/ramped/oneDdur_11.wav,/Users/Tweety/Desktop/K99preschoolImplicit/ramped/oneDdur_7.wav,D,,,,,,,,,,3,4,s,0,4,6.247205019,,,,,2.544382264,1.194203074,0,0,0,,,0.58,,,,,,,P39,TLD,m,1779,duration,2
925,pretest,1,/Users/Tweety/Desktop/K99preschoolImplicit/ramped/oneDdur_9.wav,/Users/Tweety/Desktop/K99preschoolImplicit/ramped/oneDdur_12.wav,D,,,,,,,,,,4,8,s,0,3,5.094464064,,,,,2.544382264,1.194203074,0,0,0,,,0.58,,,,,,,P39,TLD,m,1779,duration,2
926,pretest,1,/Users/Tweety/Desktop/K99preschoolImplicit/ramped/oneDdur_12.wav,/Users/Tweety/Desktop/K99preschoolImplicit/ramped/oneDdur_12.wav,S,,,,,,,,,,5,11,s,1,0,5.24633503,,,,,2.544382264,1.194203074,0,0,0,,,0.58,,,,,,,P39,TLD,m,1779,duration,2
927,pretest,1,/Users/Tweety/Desktop/K99preschoolImplicit/ramped/oneDdur_8.wav,/Users/Tweety/Desktop/K99preschoolImplicit/ramped/oneDdur_12.wav,D,,,,,,,,,,6,7,d,1,4,5.111965895,,,,,2.544382264,1.194203074,0,0,0,,,0.58,,,,,,,P39,TLD,m,1779,duration,2
928,pretest,1,/Users/Tweety/Desktop/K99preschoolImplicit/ramped/oneDdur_7.wav,/Users/Tweety/Desktop/K99preschoolImplicit/ramped/oneDdur_7.wav,S,,,,,,,,,,7,0,s,1,0,4.514935017,,,,,2.544382264,1.194203074,0,0,0,,,0.58,,,,,,,P39,TLD,m,1779,duration,2
929,pretest,1,/Users/Tweety/Desktop/K99preschoolImplicit/ramped/oneDdur_7.wav,/Users/Tweety/Desktop/K99preschoolImplicit/ramped/oneDdur_12.wav,D,,,,,,,,,,8,6,s,0,5,5.462499857,,,,,2.544382264,1.194203074,0,0,0,,,0.58,,,,,,,P39,TLD,m,1779,duration,2
930,pretest,1,/Users/Tweety/Desktop/K99preschoolImplicit/ramped/oneDdur_12.wav,/Users/Tweety/Desktop/K99preschoolImplicit/ramped/oneDdur_10.wav,D,,,,,,,,,,9,9,s,0,2,4.897277117,,,,,2.544382264,1.194203074,0,0,0,,,0.58,,,,,,,P39,TLD,m,1779,duration,2
931,pretest,1,/Users/Tweety/Desktop/K99preschoolImplicit/ramped/oneDdur_12.wav,/Users/Tweety/Desktop/K99preschoolImplicit/ramped/oneDdur_7.wav,D,,,,,,,,,,10,5,s,0,5,6.380199909,,,,,2.544382264,1.194203074,0,0,0,,,0.58,,,,,,,P39,TLD,m,1779,duration,2
932,pretest,1,/Users/Tweety/Desktop/K99preschoolImplicit/ramped/oneDdur_7.wav,/Users/Tweety/Desktop/K99preschoolImplicit/ramped/oneDdur_9.wav,D,,,,,,,,,,11,2,s,0,2,4.479278088,,,,,2.544382264,1.194203074,0,0,0,,,0.58,,,,,,,P39,TLD,m,1779,duration,2
933,,,,,,,,,,,,,,,,,,,,,,,,,2.544382264,1.194203074,0,0,0,,,0.58,,,,,,,P39,TLD,m,1779,duration,2
934,taskTrain,1,,,,left,,,,,,,,,,,,,,,,,,,2.544382264,1.194203074,0,0,0,1.8,0.66,0.58,1,1,,,,,P39,TLD,m,1779,duration,2
935,taskTrain,1,,,,right,,,,,,,,,,,,,,,,,,,2.544382264,1.194203074,0,0,0,1.383,0.66,0.58,1,1,,,,,P39,TLD,m,1779,duration,2
936,taskTrain,1,,,,right,,,,,,,,,,,,,,,,,,,2.544382264,1.194203074,0,0,0,1.383,0.66,0.58,1,1,,,,,P39,TLD,m,1779,duration,2
937,taskTrain,1,,,,left,,,,,,,,,,,,,,,,,,,2.544382264,1.194203074,0,0,0,1.8,0.66,0.58,1,1,,,,,P39,TLD,m,1779,duration,2
938,,,,,,,,,,,,,,,,,,,,,,,,,2.544382264,1.194203074,0,0,0,,,0.58,,,,,,,P39,TLD,m,1779,duration,2
939,implicitTraining,1,,,,left,0,,,2,0.42,1.483344223,2,1,,,,,,,left,1,,1.395913839,2.544382264,1.194203074,1.395913839,1.395913839,1.395913839,1.8,0.66,0.58,1,1,,,,,P39,TLD,m,1779,duration,2
940,implicitTraining,1,,,,right,1,right,converge,5,0.78,2.715218455,2,2,,,,,,,right,1,1,3.812877178,2.544382264,1.194203074,3.812877178,3.812877178,3.812877178,1.383,0.66,0.58,0,0,,,,,P39,TLD,m,1779,duration,2
941,implicitTraining,1,,,,left,1,left,converge,3,0.54,1.893968967,2,3,,,,,,,left,1,1,4.076948881,2.544382264,1.194203074,4.076948881,4.076948881,4.076948881,1.8,0.66,0.58,0,0,,,,,P39,TLD,m,1779,duration,2
942,implicitTraining,1,,,,left,0,right,conflict,1,0.3,1.07271948,2,4,,,,,,,left,1,0,3.068012953,2.544382264,1.194203074,3.068012953,3.068012953,3.068012953,1.8,0.66,0.58,0,0,,,,,P39,TLD,m,1779,duration,2
943,implicitTraining,1,,,,right,1,right,converge,6,0.9,3.125843199,2,5,,,,,,,right,1,1,3.660546064,2.544382264,1.194203074,3.660546064,3.660546064,3.660546064,1.383,0.66,0.58,0,0,,,,,P39,TLD,m,1779,duration,2
944,implicitTraining,1,,,,right,0,left,conflict,4,0.66,2.304593711,2,6,,,,,,,right,1,0,2.795032024,2.544382264,1.194203074,2.795032024,2.795032024,2.795032024,1.383,0.66,0.58,0,0,,,,,P39,TLD,m,1779,duration,2
945,implicitTraining,1,,,,right,0,left,conflict,6,0.9,3.125843199,6,7,,,,,,,right,1,0,2.731036186,2.544382264,1.194203074,2.731036186,2.731036186,2.731036186,1.383,0.66,0.58,0,0,,,,,P39,TLD,m,1779,duration,2
946,implicitTraining,1,,,,left,1,left,converge,3,0.54,1.893968967,6,8,,,,,,,left,1,1,3.194370985,2.544382264,1.194203074,3.194370985,3.194370985,3.194370985,1.8,0.66,0.58,0,0,,,,,P39,TLD,m,1779,duration,2
947,implicitTraining,1,,,,left,0,right,conflict,2,0.42,1.483344223,6,9,,,,,,,left,1,0,2.317815065,2.544382264,1.194203074,2.317815065,2.317815065,2.317815065,1.8,0.66,0.58,1,1,,,,,P39,TLD,m,1779,duration,2
948,implicitTraining,1,,,,right,1,right,converge,4,0.66,2.304593711,6,10,,,,,,,right,1,1,2.444582939,2.544382264,1.194203074,2.444582939,2.444582939,2.444582939,1.383,0.66,0.58,0,0,,,,,P39,TLD,m,1779,duration,2
949,implicitTraining,1,,,,left,1,left,converge,1,0.3,1.07271948,6,11,,,,,,,left,1,1,2.562735081,2.544382264,1.194203074,2.562735081,2.562735081,2.562735081,1.8,0.66,0.58,0,0,,,,,P39,TLD,m,1779,duration,2
950,implicitTraining,1,,,,right,1,right,converge,5,0.78,2.715218455,6,12,,,,,,,right,1,1,2.863554001,2.544382264,1.194203074,2.863554001,2.863554001,2.863554001,1.383,0.66,0.58,0,0,,,,,P39,TLD,m,1779,duration,2
951,implicitTraining,1,,,,left,1,left,converge,1,0.3,1.07271948,7,13,,,,,,,left,1,1,2.328476191,2.544382264,1.194203074,2.328476191,2.328476191,2.328476191,1.8,0.66,0.58,1,1,,,,,P39,TLD,m,1779,duration,2
952,implicitTraining,1,,,,right,1,right,converge,4,0.66,2.304593711,7,14,,,,,,,right,1,1,2.079566956,2.544382264,1.194203074,2.079566956,2.079566956,2.079566956,1.383,0.66,0.58,0,0,,,,,P39,TLD,m,1779,duration,2
953,implicitTraining,1,,,,right,0,left,conflict,6,0.9,3.125843199,7,15,,,,,,,left,0,1,1.718199968,2.544382264,1.194203074,1.718199968,1.718199968,1.718199968,1.383,0.66,0.58,1,1,,,,,P39,TLD,m,1779,duration,2
954,implicitTraining,1,,,,left,1,left,converge,3,0.54,1.893968967,7,16,,,,,,,right,0,0,3.161022186,2.544382264,1.194203074,3.161022186,3.161022186,3.161022186,1.8,0.66,0.58,0,0,,,,,P39,TLD,m,1779,duration,2
955,implicitTraining,1,,,,right,1,right,converge,5,0.78,2.715218455,7,17,,,,,,,right,1,1,2.657562971,2.544382264,1.194203074,2.657562971,2.657562971,2.657562971,1.383,0.66,0.58,0,0,,,,,P39,TLD,m,1779,duration,2
956,implicitTraining,1,,,,left,1,left,converge,2,0.42,1.483344223,7,18,,,,,,,left,1,1,1.363979816,2.544382264,1.194203074,1.363979816,1.363979816,1.363979816,1.8,0.66,0.58,1,1,,,,,P39,TLD,m,1779,duration,2
957,implicitTraining,1,,,,left,0,right,conflict,3,0.54,1.893968967,3,19,,,,,,,left,1,0,2.386454105,2.544382264,1.194203074,2.386454105,2.386454105,2.386454105,1.8,0.66,0.58,1,0,,,,,P39,TLD,m,1779,duration,2
958,implicitTraining,1,,,,right,1,right,converge,6,0.9,3.125843199,3,20,,,,,,,right,1,1,2.227216005,2.544382264,1.194203074,2.227216005,2.227216005,2.227216005,1.383,0.66,0.58,0,0,,,,,P39,TLD,m,1779,duration,2
959,implicitTraining,1,,,,left,1,left,converge,2,0.42,1.483344223,3,21,,,,,,,left,1,1,2.612540007,2.544382264,1.194203074,2.612540007,2.612540007,2.612540007,1.8,0.66,0.58,0,0,,,,,P39,TLD,m,1779,duration,2
960,implicitTraining,1,,,,right,1,right,converge,5,0.78,2.715218455,3,22,,,,,,,right,1,1,2.140540123,2.544382264,1.194203074,2.140540123,2.140540123,2.140540123,1.383,0.66,0.58,0,0,,,,,P39,TLD,m,1779,duration,2
961,implicitTraining,1,,,,right,0,left,conflict,4,0.66,2.304593711,3,23,,,,,,,right,1,0,2.901346207,2.544382264,1.194203074,2.901346207,2.901346207,2.901346207,1.383,0.66,0.58,0,0,,,,,P39,TLD,m,1779,duration,2
962,implicitTraining,1,,,,left,1,left,converge,1,0.3,1.07271948,3,24,,,,,,,left,1,1,2.541664839,2.544382264,1.194203074,2.541664839,2.541664839,2.541664839,1.8,0.66,0.58,0,0,,,,,P39,TLD,m,1779,duration,2
963,,,,,,,,,,,,,,,,,,,,,,,,,2.544382264,1.194203074,0,0,0,,,0.58,,,,,,,P39,TLD,m,1779,duration,2
964,implicitTraining,2,,,,right,0,left,conflict,4,0.66,2.304593711,4,25,,,,,,,left,0,1,1.251623154,2.544382264,1.194203074,1.251623154,1.251623154,1.251623154,1.383,0.66,0.58,1,1,,,,,P39,TLD,m,1779,duration,2
965,implicitTraining,2,,,,left,1,left,converge,1,0.3,1.07271948,4,26,,,,,,,left,1,1,2.362802029,2.544382264,1.194203074,2.362802029,2.362802029,2.362802029,1.8,0.66,0.58,1,1,,,,,P39,TLD,m,1779,duration,2
966,implicitTraining,2,,,,right,1,right,converge,6,0.9,3.125843199,4,27,,,,,,,right,1,1,2.230174065,2.544382264,1.194203074,2.230174065,2.230174065,2.230174065,1.383,0.66,0.58,0,0,,,,,P39,TLD,m,1779,duration,2
967,implicitTraining,2,,,,right,0,left,conflict,5,0.78,2.715218455,4,28,,,,,,,left,0,1,1.646357059,2.544382264,1.194203074,1.646357059,1.646357059,1.646357059,1.383,0.66,0.58,1,1,,,,,P39,TLD,m,1779,duration,2
968,implicitTraining,2,,,,left,1,left,converge,2,0.42,1.483344223,4,29,,,,,,,left,1,1,2.377976894,2.544382264,1.194203074,2.377976894,2.377976894,2.377976894,1.8,0.66,0.58,1,1,,,,,P39,TLD,m,1779,duration,2
969,implicitTraining,2,,,,left,0,right,conflict,3,0.54,1.893968967,4,30,,,,,,,right,0,1,2.435750008,2.544382264,1.194203074,2.435750008,2.435750008,2.435750008,1.8,0.66,0.58,1,0,,,,,P39,TLD,m,1779,duration,2
970,implicitTraining,2,,,,right,1,right,converge,6,0.9,3.125843199,8,31,,,,,,,right,1,1,2.696511984,2.544382264,1.194203074,2.696511984,2.696511984,2.696511984,1.383,0.66,0.58,0,0,,,,,P39,TLD,m,1779,duration,2
971,implicitTraining,2,,,,left,1,left,converge,3,0.54,1.893968967,8,32,,,,,,,left,1,1,2.477674961,2.544382264,1.194203074,2.477674961,2.477674961,2.477674961,1.8,0.66,0.58,0,0,,,,,P39,TLD,m,1779,duration,2
972,implicitTraining,2,,,,right,1,right,converge,4,0.66,2.304593711,8,33,,,,,,,right,1,1,2.062813044,2.544382264,1.194203074,2.062813044,2.062813044,2.062813044,1.383,0.66,0.58,0,0,,,,,P39,TLD,m,1779,duration,2
973,implicitTraining,2,,,,left,1,left,converge,2,0.42,1.483344223,8,34,,,,,,,left,1,1,2.478492022,2.544382264,1.194203074,2.478492022,2.478492022,2.478492022,1.8,0.66,0.58,0,0,,,,,P39,TLD,m,1779,duration,2
974,implicitTraining,2,,,,left,0,right,conflict,1,0.3,1.07271948,8,35,,,,,,,left,1,0,3.337483883,2.544382264,1.194203074,3.337483883,3.337483883,3.337483883,1.8,0.66,0.58,0,0,,,,,P39,TLD,m,1779,duration,2
975,implicitTraining,2,,,,right,1,right,converge,5,0.78,2.715218455,8,36,,,,,,,right,1,1,2.075937986,2.544382264,1.194203074,2.075937986,2.075937986,2.075937986,1.383,0.66,0.58,0,0,,,,,P39,TLD,m,1779,duration,2
976,implicitTraining,2,,,,right,0,left,conflict,5,0.78,2.715218455,5,37,,,,,,,right,1,0,2.967925072,2.544382264,1.194203074,2.967925072,2.967925072,2.967925072,1.383,0.66,0.58,0,0,,,,,P39,TLD,m,1779,duration,2
977,implicitTraining,2,,,,left,1,left,converge,2,0.42,1.483344223,5,38,,,,,,,left,1,1,2.47567606,2.544382264,1.194203074,2.47567606,2.47567606,2.47567606,1.8,0.66,0.58,0,0,,,,,P39,TLD,m,1779,duration,2
978,implicitTraining,2,,,,left,0,right,conflict,1,0.3,1.07271948,5,39,,,,,,,left,1,0,3.171633959,2.544382264,1.194203074,3.171633959,3.171633959,3.171633959,1.8,0.66,0.58,0,0,,,,,P39,TLD,m,1779,duration,2
979,implicitTraining,2,,,,right,1,right,converge,4,0.66,2.304593711,5,40,,,,,,,right,1,1,2.275609016,2.544382264,1.194203074,2.275609016,2.275609016,2.275609016,1.383,0.66,0.58,0,0,,,,,P39,TLD,m,1779,duration,2
980,implicitTraining,2,,,,left,1,left,converge,3,0.54,1.893968967,5,41,,,,,,,left,1,1,3.162260056,2.544382264,1.194203074,3.162260056,3.162260056,3.162260056,1.8,0.66,0.58,0,0,,,,,P39,TLD,m,1779,duration,2
981,implicitTraining,2,,,,right,1,right,converge,6,0.9,3.125843199,5,42,,,,,,,right,1,1,2.630245924,2.544382264,1.194203074,2.630245924,2.630245924,2.630245924,1.383,0.66,0.58,0,0,,,,,P39,TLD,m,1779,duration,2
982,implicitTraining,2,,,,left,1,left,converge,1,0.3,1.07271948,1,43,,,,,,,left,1,1,2.313528061,2.544382264,1.194203074,2.313528061,2.313528061,2.313528061,1.8,0.66,0.58,1,1,,,,,P39,TLD,m,1779,duration,2
983,implicitTraining,2,,,,right,1,right,converge,4,0.66,2.304593711,1,44,,,,,,,right,1,1,2.092746973,2.544382264,1.194203074,2.092746973,2.092746973,2.092746973,1.383,0.66,0.58,0,0,,,,,P39,TLD,m,1779,duration,2
984,implicitTraining,2,,,,right,0,left,conflict,5,0.78,2.715218455,1,45,,,,,,,left,0,1,1.018311977,2.544382264,1.194203074,1.018311977,1.018311977,1.018311977,1.383,0.66,0.58,1,1,,,,,P39,TLD,m,1779,duration,2
985,implicitTraining,2,,,,left,1,left,converge,3,0.54,1.893968967,1,46,,,,,,,right,0,0,0.5266959667,2.544382264,1.194203074,0.5266959667,0.5266959667,0.5266959667,1.8,0.66,0.58,1,1,,,,,P39,TLD,m,1779,duration,2
986,implicitTraining,2,,,,left,0,right,conflict,2,0.42,1.483344223,1,47,,,,,,,left,1,0,4.103808165,2.544382264,1.194203074,4.103808165,4.103808165,4.103808165,1.8,0.66,0.58,0,0,,,,,P39,TLD,m,1779,duration,2
987,implicitTraining,2,,,,right,1,right,converge,6,0.9,3.125843199,1,48,,,,,,,right,1,1,6.893136024,2.544382264,1.194203074,NA,6.893136024,NA,1.383,0.66,0.58,0,0,,,,,P39,TLD,m,1779,duration,2
988,,,,,,,,,,,,,,,,,,,,,,,,,2.544382264,1.194203074,0,0,0,,,0.58,,,,,,,P39,TLD,m,1779,duration,2
989,explicitTest,3,,,,left,0,right,conflict,2,0.42,1.483344223,2,49,,,,,,,,,1,,2.544382264,1.194203074,0,0,0,1.8,0.66,0.58,1,1,right,0,1,9.83048296,P39,TLD,m,1779,duration,2
990,explicitTest,3,,,,right,1,right,converge,5,0.78,2.715218455,2,50,,,,,,,,,0,,2.544382264,1.194203074,0,0,0,1.383,0.66,0.58,1,1,left,0,0,0.1829080582,P39,TLD,m,1779,duration,2
991,explicitTest,3,,,,left,1,left,converge,3,0.54,1.893968967,2,51,,,,,,,,,1,,2.544382264,1.194203074,0,0,0,1.8,0.66,0.58,1,1,left,1,0,3.963072062,P39,TLD,m,1779,duration,2
992,explicitTest,3,,,,left,0,right,conflict,1,0.3,1.07271948,2,52,,,,,,,,,1,,2.544382264,1.194203074,0,0,0,1.8,0.66,0.58,1,1,right,0,1,0.8819630146,P39,TLD,m,1779,duration,2
993,explicitTest,3,,,,right,1,right,converge,6,0.9,3.125843199,2,53,,,,,,,,,0,,2.544382264,1.194203074,0,0,0,1.383,0.66,0.58,1,1,left,0,0,6.3467381,P39,TLD,m,1779,duration,2
994,explicitTest,3,,,,right,0,left,conflict,4,0.66,2.304593711,2,54,,,,,,,,,1,,2.544382264,1.194203074,0,0,0,1.383,0.66,0.58,1,1,left,0,0,1.09829998,P39,TLD,m,1779,duration,2
995,explicitTest,3,,,,right,0,left,conflict,6,0.9,3.125843199,6,55,,,,,,,,,1,,2.544382264,1.194203074,0,0,0,1.383,0.66,0.58,1,1,left,0,0,1.317288876,P39,TLD,m,1779,duration,2
996,explicitTest,3,,,,left,1,left,converge,3,0.54,1.893968967,6,56,,,,,,,,,0,,2.544382264,1.194203074,0,0,0,1.8,0.66,0.58,1,1,right,0,1,1.365600109,P39,TLD,m,1779,duration,2
997,explicitTest,3,,,,left,0,right,conflict,2,0.42,1.483344223,6,57,,,,,,,,,0,,2.544382264,1.194203074,0,0,0,1.8,0.66,0.58,1,1,left,1,0,57.11179399,P39,TLD,m,1779,duration,2
998,explicitTest,3,,,,right,1,right,converge,4,0.66,2.304593711,6,58,,,,,,,,,1,,2.544382264,1.194203074,0,0,0,1.383,0.66,0.58,1,1,right,1,1,1.697539091,P39,TLD,m,1779,duration,2
999,explicitTest,3,,,,left,1,left,converge,1,0.3,1.07271948,6,59,,,,,,,,,1,,2.544382264,1.194203074,0,0,0,1.8,0.66,0.58,1,1,left,1,0,0.8646199703,P39,TLD,m,1779,duration,2
1000,explicitTest,3,,,,right,1,right,converge,5,0.78,2.715218455,6,60,,,,,,,,,1,,2.544382264,1.194203074,0,0,0,1.383,0.66,0.58,1,1,right,1,1,1.197479963,P39,TLD,m,1779,duration,2
1001,explicitTest,3,,,,left,1,left,converge,1,0.3,1.07271948,7,61,,,,,,,,,1,,2.544382264,1.194203074,0,0,0,1.8,0.66,0.58,1,1,left,1,0,0.467413187,P39,TLD,m,1779,duration,2
1002,explicitTest,3,,,,right,1,right,converge,4,0.66,2.304593711,7,62,,,,,,,,,1,,2.544382264,1.194203074,0,0,0,1.383,0.66,0.58,1,1,right,1,1,1.04977107,P39,TLD,m,1779,duration,2
1003,explicitTest,3,,,,right,0,left,conflict,6,0.9,3.125843199,7,63,,,,,,,,,1,,2.544382264,1.194203074,0,0,0,1.383,0.66,0.58,1,1,left,0,0,0.4316329956,P39,TLD,m,1779,duration,2
1004,explicitTest,3,,,,left,1,left,converge,3,0.54,1.893968967,7,64,,,,,,,,,1,,2.544382264,1.194203074,0,0,0,1.8,0.66,0.58,1,1,left,1,0,1.031707048,P39,TLD,m,1779,duration,2
1005,explicitTest,3,,,,right,1,right,converge,5,0.78,2.715218455,7,65,,,,,,,,,1,,2.544382264,1.194203074,0,0,0,1.383,0.66,0.58,1,1,right,1,1,1.381720066,P39,TLD,m,1779,duration,2
1006,explicitTest,3,,,,left,1,left,converge,2,0.42,1.483344223,7,66,,,,,,,,,1,,2.544382264,1.194203074,0,0,0,1.8,0.66,0.58,1,1,left,1,0,0.6153440475,P39,TLD,m,1779,duration,2
1007,explicitTest,3,,,,left,0,right,conflict,3,0.54,1.893968967,3,67,,,,,,,,,1,,2.544382264,1.194203074,0,0,0,1.8,0.66,0.58,1,1,right,0,1,0.531701088,P39,TLD,m,1779,duration,2
1008,explicitTest,3,,,,right,1,right,converge,6,0.9,3.125843199,3,68,,,,,,,,,0,,2.544382264,1.194203074,0,0,0,1.383,0.66,0.58,1,1,left,0,0,1.883924961,P39,TLD,m,1779,duration,2
1009,explicitTest,3,,,,left,1,left,converge,2,0.42,1.483344223,3,69,,,,,,,,,0,,2.544382264,1.194203074,0,0,0,1.8,0.66,0.58,1,1,right,0,1,2.981477976,P39,TLD,m,1779,duration,2
1010,explicitTest,3,,,,right,1,right,converge,5,0.78,2.715218455,3,70,,,,,,,,,0,,2.544382264,1.194203074,0,0,0,1.383,0.66,0.58,1,1,left,0,0,2.049253941,P39,TLD,m,1779,duration,2
1011,explicitTest,3,,,,right,0,left,conflict,4,0.66,2.304593711,3,71,,,,,,,,,0,,2.544382264,1.194203074,0,0,0,1.383,0.66,0.58,1,1,right,1,1,1.349485159,P39,TLD,m,1779,duration,2
1012,explicitTest,3,,,,left,1,left,converge,1,0.3,1.07271948,3,72,,,,,,,,,1,,2.544382264,1.194203074,0,0,0,1.8,0.66,0.58,1,1,left,1,0,1.981254101,P39,TLD,m,1779,duration,2
1013,,,,,,,,,,,,,,1,,,,,,,,,,,2.544382264,1.194203074,0,0,0,,,0.58,,,,,,,P39,TLD,m,1779,duration,2
1014,,,,,,,,,,,,,,2,,,,,,,,,,,2.544382264,1.194203074,0,0,0,,,0.58,,,,,,,P39,TLD,m,1779,duration,2
1035,phase,block,Sound1,Sound2,category,side,,,,soundfileNum,duration_dur,pitch_pitch,blockOrig,trial,discrimStim.thisTrialN,discrimStim.thisIndex,key_resp_14.keys,0,#N/A,key_resp_14.rt,resp_1.keys,resp_1.corr,,resp_1.rt,2.530398369,0.4765131394,NA,resp_1.rt,NA,1.383,0.66,0.58,0,0,key_resp_20.keys,key_resp_20.corr,0,key_resp_20.rt,participant,DLD,m,1655,version,list
1150,phase,block,Sound1,Sound2,category,side,,#REF!,#REF!,soundfileNum,duration_dur,pitch_pitch,blockOrig,trial,discrimStim.thisTrialN,discrimStim.thisIndex,key_resp_14.keys,0,#N/A,key_resp_14.rt,resp_1.keys,resp_1.corr,#REF!,resp_1.rt,2.530398369,0.4765131394,NA,resp_1.rt,NA,1.383,0.66,0.58,0,0,key_resp_20.keys,key_resp_20.corr,0,key_resp_20.rt,participant,DLD,m,1655,version,list
1151,pretest,1,/Users/Tweety/Desktop/K99preschoolImplicit/ramped/oneDpitch_6.wav,/Users/Tweety/Desktop/K99preschoolImplicit/ramped/oneDpitch_4.wav,D,,,#REF!,#REF!,,,,,,0,9,d,1,2,6.20741415,,,#REF!,,2.525707146,0.4665853143,NA,NA,0,,,0.58,,,,,,,P41,TLD,m,1888,pitch,4
1152,pretest,1,/Users/Tweety/Desktop/K99preschoolImplicit/ramped/oneDpitch_1.wav,/Users/Tweety/Desktop/K99preschoolImplicit/ramped/oneDpitch_1.wav,S,,,,,,,,,,1,0,s,1,0,11.4601171,,,,,2.525707146,0.4665853143,NA,NA,0,,,0.58,,,,,,,P41,TLD,m,1888,pitch,4
1153,pretest,1,/Users/Tweety/Desktop/K99preschoolImplicit/ramped/oneDpitch_3.wav,/Users/Tweety/Desktop/K99preschoolImplicit/ramped/oneDpitch_6.wav,D,,,,,,,,,,2,8,d,1,3,5.143383026,,,,,2.525707146,0.4665853143,NA,NA,0,,,0.58,,,,,,,P41,TLD,m,1888,pitch,4
1154,pretest,1,/Users/Tweety/Desktop/K99preschoolImplicit/ramped/oneDpitch_6.wav,/Users/Tweety/Desktop/K99preschoolImplicit/ramped/oneDpitch_5.wav,D,,,,,,,,,,3,10,d,1,1,4.864557981,,,,,2.525707146,0.4665853143,NA,NA,0,,,0.58,,,,,,,P41,TLD,m,1888,pitch,4
1155,pretest,1,/Users/Tweety/Desktop/K99preschoolImplicit/ramped/oneDpitch_2.wav,/Users/Tweety/Desktop/K99preschoolImplicit/ramped/oneDpitch_6.wav,D,,,,,,,,,,4,7,d,1,4,4.716845989,,,,,2.525707146,0.4665853143,NA,NA,0,,,0.58,,,,,,,P41,TLD,m,1888,pitch,4
1156,pretest,1,/Users/Tweety/Desktop/K99preschoolImplicit/ramped/oneDpitch_5.wav,/Users/Tweety/Desktop/K99preschoolImplicit/ramped/oneDpitch_1.wav,D,,,,,,,,,,5,4,d,1,4,4.481439114,,,,,2.525707146,0.4665853143,NA,NA,0,,,0.58,,,,,,,P41,TLD,m,1888,pitch,4
1157,pretest,1,/Users/Tweety/Desktop/K99preschoolImplicit/ramped/oneDpitch_1.wav,/Users/Tweety/Desktop/K99preschoolImplicit/ramped/oneDpitch_6.wav,D,,,,,,,,,,6,6,d,1,5,4.57831502,,,,,2.525707146,0.4665853143,NA,NA,0,,,0.58,,,,,,,P41,TLD,m,1888,pitch,4
1158,pretest,1,/Users/Tweety/Desktop/K99preschoolImplicit/ramped/oneDpitch_1.wav,/Users/Tweety/Desktop/K99preschoolImplicit/ramped/oneDpitch_3.wav,D,,,,,,,,,,7,2,s,0,2,5.665984869,,,,,2.525707146,0.4665853143,NA,NA,0,,,0.58,,,,,,,P41,TLD,m,1888,pitch,4
1159,pretest,1,/Users/Tweety/Desktop/K99preschoolImplicit/ramped/oneDpitch_6.wav,/Users/Tweety/Desktop/K99preschoolImplicit/ramped/oneDpitch_6.wav,S,,,,,,,,,,8,11,s,1,0,5.37695694,,,,,2.525707146,0.4665853143,NA,NA,0,,,0.58,,,,,,,P41,TLD,m,1888,pitch,4
1160,pretest,1,/Users/Tweety/Desktop/K99preschoolImplicit/ramped/oneDpitch_4.wav,/Users/Tweety/Desktop/K99preschoolImplicit/ramped/oneDpitch_1.wav,D,,,,,,,,,,9,3,d,1,3,7.178699017,,,,,2.525707146,0.4665853143,NA,NA,0,,,0.58,,,,,,,P41,TLD,m,1888,pitch,4
1161,pretest,1,/Users/Tweety/Desktop/K99preschoolImplicit/ramped/oneDpitch_6.wav,/Users/Tweety/Desktop/K99preschoolImplicit/ramped/oneDpitch_1.wav,D,,,,,,,,,,10,5,d,1,5,4.763502836,,,,,2.525707146,0.4665853143,NA,NA,0,,,0.58,,,,,,,P41,TLD,m,1888,pitch,4
1162,pretest,1,/Users/Tweety/Desktop/K99preschoolImplicit/ramped/oneDpitch_1.wav,/Users/Tweety/Desktop/K99preschoolImplicit/ramped/oneDpitch_2.wav,D,,,,,,,,,,11,1,s,0,1,5.613803148,,,,,2.525707146,0.4665853143,NA,NA,0,,,0.58,,,,,,,P41,TLD,m,1888,pitch,4
1163,,,,,,,,,,,,,,,,,,,,,,,,,2.525707146,0.4665853143,NA,NA,0,,,0.58,,,,,,,P41,TLD,m,1888,pitch,4
1164,taskTrain,1,,,,left,,,,,,,,,,,,,,,,,,,2.525707146,0.4665853143,NA,NA,0,1.8,0.58,0.58,0,0,,,,,P41,TLD,m,1888,pitch,4
1165,taskTrain,1,,,,right,,,,,,,,,,,,,,,,,,,2.525707146,0.4665853143,NA,NA,0,1.383,0.58,0.58,0,0,,,,,P41,TLD,m,1888,pitch,4
1166,taskTrain,1,,,,right,,,,,,,,,,,,,,,,,,,2.525707146,0.4665853143,NA,NA,0,1.383,0.58,0.58,0,0,,,,,P41,TLD,m,1888,pitch,4
1167,taskTrain,1,,,,left,,,,,,,,,,,,,,,,,,,2.525707146,0.4665853143,NA,NA,0,1.8,0.58,0.58,0,0,,,,,P41,TLD,m,1888,pitch,4
1168,,,,,,,,,,,,,,,,,,,,,,,,,2.525707146,0.4665853143,NA,NA,0,,,0.58,,,,,,,P41,TLD,m,1888,pitch,4
1169,implicitTraining,1,,,,right,0,,,4,0.66,2.304593711,4,1,,,,,,,right,1,,3.848069906,2.525707146,0.4665853143,3.848069906,3.848069906,3.848069906,1.383,0.58,0.58,0,0,,,,,P41,TLD,m,1888,pitch,4
1170,implicitTraining,1,,,,left,1,left,converge,1,0.3,1.07271948,4,2,,,,,,,left,1,1,5.678553104,2.525707146,0.4665853143,NA,5.678553104,NA,1.8,0.58,0.58,0,0,,,,,P41,TLD,m,1888,pitch,4
1171,implicitTraining,1,,,,right,1,right,converge,6,0.9,3.125843199,4,3,,,,,,,right,1,1,3.002475977,2.525707146,0.4665853143,3.002475977,3.002475977,3.002475977,1.383,0.58,0.58,0,0,,,,,P41,TLD,m,1888,pitch,4
1172,implicitTraining,1,,,,right,0,left,conflict,5,0.78,2.715218455,4,4,,,,,,,right,1,0,2.817389011,2.525707146,0.4665853143,2.817389011,2.817389011,2.817389011,1.383,0.58,0.58,0,0,,,,,P41,TLD,m,1888,pitch,4
