participant,trial,group,trialOrder,side,changeTrial,RTwoOutlier,soundDimension,soundfileNum,duration,pitch,response_time,correct,phase,RT_3x_std,sum_changetrial_window,sound_label_original,sound_code_original,sound_high_low,sound_label,sound_code
P100,49,DLD,5,right,0.0,False,pitch,5,0.78,2.715218455,5.330848932,0,explicit,True,,pitch_5,10,high,pitch_high,2
P100,50,DLD,5,left,1.0,False,pitch,2,0.42,1.483344223,5.512462139,1,explicit,True,,pitch_2,7,low,pitch_low,3
P100,51,DLD,5,left,0.0,False,pitch,1,0.3,1.07271948,2.898402214,0,explicit,True,,pitch_1,6,low,pitch_low,3
P100,52,DLD,5,right,1.0,False,pitch,4,0.66,2.304593711,3.398437023,1,explicit,True,,pitch_4,9,high,pitch_high,2
P100,53,DLD,5,left,1.0,False,pitch,3,0.54,1.893968967,2.380028009,1,explicit,True,,pitch_3,8,low,pitch_low,3
P100,54,DLD,5,right,1.0,False,pitch,6,0.9,3.125843199,1.963629007,1,explicit,True,,pitch_6,11,high,pitch_high,2
P100,55,DLD,5,left,1.0,False,pitch,1,0.3,1.07271948,1.263525963,1,explicit,True,2.0,pitch_1,6,low,pitch_low,3
P100,56,DLD,5,right,1.0,False,pitch,4,0.66,2.304593711,1.797314882,1,explicit,True,3.0,pitch_4,9,high,pitch_high,2
P100,57,DLD,5,right,0.0,False,pitch,5,0.78,2.715218455,2.097533941,0,explicit,True,3.0,pitch_5,10,high,pitch_high,2
P100,58,DLD,5,left,1.0,False,pitch,3,0.54,1.893968967,2.082644939,1,explicit,True,4.0,pitch_3,8,low,pitch_low,3
P100,59,DLD,5,left,0.0,False,pitch,2,0.42,1.483344223,1.862890959,1,explicit,True,4.0,pitch_2,7,low,pitch_low,3
P100,60,DLD,5,right,1.0,False,pitch,6,0.9,3.125843199,2.683516026,1,explicit,True,3.0,pitch_6,11,high,pitch_high,2
P100,61,DLD,5,left,1.0,False,pitch,3,0.54,1.893968967,3.39658308,1,explicit,True,3.0,pitch_3,8,low,pitch_low,3
P100,62,DLD,5,right,1.0,False,pitch,6,0.9,3.125843199,1.814598084,1,explicit,True,2.0,pitch_6,11,high,pitch_high,2
P100,63,DLD,5,left,1.0,False,pitch,2,0.42,1.483344223,1.032570839,1,explicit,True,2.0,pitch_2,7,low,pitch_low,3
P100,64,DLD,5,right,1.0,False,pitch,5,0.78,2.715218455,0.9993100166,1,explicit,True,3.0,pitch_5,10,high,pitch_high,2
P100,65,DLD,5,right,0.0,False,pitch,4,0.66,2.304593711,1.999224186,0,explicit,True,3.0,pitch_4,9,high,pitch_high,2
P100,66,DLD,5,left,1.0,False,pitch,1,0.3,1.07271948,3.099232912,1,explicit,True,4.0,pitch_1,6,low,pitch_low,3
P100,67,DLD,5,left,0.0,False,pitch,1,0.3,1.07271948,2.431583166,1,explicit,True,4.0,pitch_1,6,low,pitch_low,3
P100,68,DLD,5,right,1.0,False,pitch,4,0.66,2.304593711,1.18126893,1,explicit,True,3.0,pitch_4,9,high,pitch_high,2
P100,69,DLD,5,right,0.0,False,pitch,6,0.9,3.125843199,0.8654558659,1,explicit,True,3.0,pitch_6,11,high,pitch_high,2
P100,70,DLD,5,left,1.0,False,pitch,3,0.54,1.893968967,3.428598166,0,explicit,True,2.0,pitch_3,8,low,pitch_low,3
P100,71,DLD,5,right,1.0,False,pitch,5,0.78,2.715218455,3.047214985,1,explicit,True,2.0,pitch_5,10,high,pitch_high,2
P100,72,DLD,5,left,1.0,False,pitch,2,0.42,1.483344223,4.080960035,1,explicit,True,2.0,pitch_2,7,low,pitch_low,3
P103,49,DLD,6,right,0.0,True,duration,6,0.9,3.125843199,7.08196187,1,explicit,True,,duration_6,5,high,duration_high,0
P103,50,DLD,6,left,1.0,True,duration,3,0.54,1.893968967,2.950271845,1,explicit,True,,duration_3,2,low,duration_low,1
P103,51,DLD,6,left,0.0,True,duration,2,0.42,1.483344223,1.382029057,0,explicit,True,,duration_2,1,low,duration_low,1
P103,52,DLD,6,right,1.0,True,duration,4,0.66,2.304593711,2.916017056,1,explicit,True,,duration_4,3,high,duration_high,0
P103,53,DLD,6,left,1.0,True,duration,1,0.3,1.07271948,10.21162796,1,explicit,True,,duration_1,0,low,duration_low,1
P103,54,DLD,6,right,1.0,True,duration,5,0.78,2.715218455,9.87848115,0,explicit,True,,duration_5,4,high,duration_high,0
P103,55,DLD,6,left,1.0,True,duration,1,0.3,1.07271948,3.779913902,1,explicit,True,2.0,duration_1,0,low,duration_low,1
P103,56,DLD,6,right,1.0,True,duration,4,0.66,2.304593711,3.616129875,1,explicit,True,3.0,duration_4,3,high,duration_high,0
P103,57,DLD,6,right,0.0,True,duration,5,0.78,2.715218455,6.197232008,0,explicit,True,3.0,duration_5,4,high,duration_high,0
P103,58,DLD,6,left,1.0,True,duration,3,0.54,1.893968967,4.012968063,1,explicit,True,4.0,duration_3,2,low,duration_low,1
P103,59,DLD,6,left,0.0,True,duration,2,0.42,1.483344223,2.563812017,0,explicit,True,4.0,duration_2,1,low,duration_low,1
P103,60,DLD,6,right,1.0,True,duration,6,0.9,3.125843199,3.54995513,1,explicit,True,3.0,duration_6,5,high,duration_high,0
P103,61,DLD,6,right,0.0,True,duration,4,0.66,2.304593711,2.996577024,0,explicit,True,3.0,duration_4,3,high,duration_high,0
P103,62,DLD,6,left,1.0,True,duration,1,0.3,1.07271948,4.029774904,0,explicit,True,2.0,duration_1,0,low,duration_low,1
P103,63,DLD,6,right,1.0,True,duration,6,0.9,3.125843199,1.914530039,1,explicit,True,2.0,duration_6,5,high,duration_high,0
P103,64,DLD,6,right,0.0,True,duration,5,0.78,2.715218455,4.162701845,1,explicit,True,2.0,duration_5,4,high,duration_high,0
P103,65,DLD,6,left,1.0,True,duration,2,0.42,1.483344223,2.365982056,1,explicit,True,2.0,duration_2,1,low,duration_low,1
P103,66,DLD,6,left,0.0,True,duration,3,0.54,1.893968967,3.831302166,1,explicit,True,3.0,duration_3,2,low,duration_low,1
P103,67,DLD,6,left,0.0,True,duration,3,0.54,1.893968967,4.845715046,0,explicit,True,2.0,duration_3,2,low,duration_low,1
P103,68,DLD,6,right,1.0,True,duration,6,0.9,3.125843199,3.379365921,0,explicit,True,3.0,duration_6,5,high,duration_high,0
P103,69,DLD,6,left,1.0,True,duration,2,0.42,1.483344223,2.647662878,0,explicit,True,2.0,duration_2,1,low,duration_low,1
P103,70,DLD,6,right,1.0,True,duration,5,0.78,2.715218455,5.113701105,0,explicit,True,1.0,duration_5,4,high,duration_high,0
P103,71,DLD,6,right,0.0,True,duration,4,0.66,2.304593711,3.013304949,1,explicit,True,2.0,duration_4,3,high,duration_high,0
P103,72,DLD,6,left,1.0,True,duration,1,0.3,1.07271948,1.615127087,1,explicit,True,2.0,duration_1,0,low,duration_low,1
P104,49,DLD,4,right,0.0,False,duration,4,0.66,2.304593711,5.453462124,0,explicit,True,,duration_4,3,high,duration_high,0
P104,50,DLD,4,left,1.0,False,duration,1,0.3,1.07271948,7.694068909,0,explicit,True,,duration_1,0,low,duration_low,1
P104,51,DLD,4,right,1.0,False,duration,6,0.9,3.125843199,6.445676804,1,explicit,True,,duration_6,5,high,duration_high,0
P104,52,DLD,4,right,0.0,False,duration,5,0.78,2.715218455,4.462007999,0,explicit,True,,duration_5,4,high,duration_high,0
P104,53,DLD,4,left,1.0,False,duration,2,0.42,1.483344223,8.794137001,1,explicit,True,,duration_2,1,low,duration_low,1
P104,54,DLD,4,left,0.0,False,duration,3,0.54,1.893968967,3.529816151,1,explicit,True,,duration_3,2,low,duration_low,1
P104,55,DLD,4,right,1.0,False,duration,6,0.9,3.125843199,5.1807971,1,explicit,True,2.0,duration_6,5,high,duration_high,0
P104,56,DLD,4,left,1.0,False,duration,3,0.54,1.893968967,2.298198938,0,explicit,True,3.0,duration_3,2,low,duration_low,1
P104,57,DLD,4,right,1.0,False,duration,4,0.66,2.304593711,8.928617954,0,explicit,True,2.0,duration_4,3,high,duration_high,0
P104,58,DLD,4,left,1.0,False,duration,2,0.42,1.483344223,5.581663847,0,explicit,True,2.0,duration_2,1,low,duration_low,1
P104,59,DLD,4,left,0.0,False,duration,1,0.3,1.07271948,6.680366039,0,explicit,True,3.0,duration_1,0,low,duration_low,1
P104,60,DLD,4,right,1.0,False,duration,5,0.78,2.715218455,4.41386199,1,explicit,True,3.0,duration_5,4,high,duration_high,0
P104,61,DLD,4,right,0.0,False,duration,5,0.78,2.715218455,4.713661909,1,explicit,True,4.0,duration_5,4,high,duration_high,0
P104,62,DLD,4,left,1.0,False,duration,2,0.42,1.483344223,3.047772884,1,explicit,True,3.0,duration_2,1,low,duration_low,1
P104,63,DLD,4,left,0.0,False,duration,1,0.3,1.07271948,2.281555176,1,explicit,True,3.0,duration_1,0,low,duration_low,1
P104,64,DLD,4,right,1.0,False,duration,4,0.66,2.304593711,5.012597084,1,explicit,True,2.0,duration_4,3,high,duration_high,0
P104,65,DLD,4,left,1.0,False,duration,3,0.54,1.893968967,1.43200016,0,explicit,True,2.0,duration_3,2,low,duration_low,1
P104,66,DLD,4,right,1.0,False,duration,6,0.9,3.125843199,3.513288021,1,explicit,True,2.0,duration_6,5,high,duration_high,0
P104,67,DLD,4,left,1.0,False,duration,2,0.42,1.483344223,1.781750917,1,explicit,True,2.0,duration_2,1,low,duration_low,1
P104,68,DLD,4,right,1.0,False,duration,5,0.78,2.715218455,2.263275146,1,explicit,True,3.0,duration_5,4,high,duration_high,0
P104,69,DLD,4,left,1.0,False,duration,3,0.54,1.893968967,6.828335047,1,explicit,True,3.0,duration_3,2,low,duration_low,1
P104,70,DLD,4,left,0.0,False,duration,1,0.3,1.07271948,2.847296953,0,explicit,True,4.0,duration_1,0,low,duration_low,1
P104,71,DLD,4,right,1.0,False,duration,6,0.9,3.125843199,4.565039158,1,explicit,True,4.0,duration_6,5,high,duration_high,0
P104,72,DLD,4,right,0.0,False,duration,4,0.66,2.304593711,3.215500116,1,explicit,True,4.0,duration_4,3,high,duration_high,0
P105,49,DLD,5,right,0.0,True,duration,5,0.78,2.715218455,12.16587114,0,explicit,True,,duration_5,4,high,duration_high,0
P105,50,DLD,5,left,1.0,True,duration,2,0.42,1.483344223,8.962071896,0,explicit,True,,duration_2,1,low,duration_low,1
P105,51,DLD,5,left,0.0,True,duration,1,0.3,1.07271948,14.84254789,0,explicit,True,,duration_1,0,low,duration_low,1
P105,52,DLD,5,right,1.0,True,duration,4,0.66,2.304593711,6.797626972,1,explicit,True,,duration_4,3,high,duration_high,0
P105,53,DLD,5,left,1.0,True,duration,3,0.54,1.893968967,9.113451004,1,explicit,True,,duration_3,2,low,duration_low,1
P105,54,DLD,5,right,1.0,True,duration,6,0.9,3.125843199,16.892483,1,explicit,True,,duration_6,5,high,duration_high,0
P105,55,DLD,5,left,1.0,True,duration,1,0.3,1.07271948,10.84576917,1,explicit,True,2.0,duration_1,0,low,duration_low,1
P105,56,DLD,5,right,1.0,True,duration,4,0.66,2.304593711,10.26123285,0,explicit,True,3.0,duration_4,3,high,duration_high,0
P105,57,DLD,5,right,0.0,True,duration,5,0.78,2.715218455,38.90078592,1,explicit,False,3.0,duration_5,4,high,duration_high,0
P105,58,DLD,5,left,1.0,True,duration,3,0.54,1.893968967,6.164977789,1,explicit,True,4.0,duration_3,2,low,duration_low,1
P105,59,DLD,5,left,0.0,True,duration,2,0.42,1.483344223,8.91326189,0,explicit,True,4.0,duration_2,1,low,duration_low,1
P105,60,DLD,5,right,1.0,True,duration,6,0.9,3.125843199,7.795827866,1,explicit,True,3.0,duration_6,5,high,duration_high,0
P105,61,DLD,5,left,1.0,True,duration,3,0.54,1.893968967,3.765747786,1,explicit,True,3.0,duration_3,2,low,duration_low,1
P105,62,DLD,5,right,1.0,True,duration,6,0.9,3.125843199,14.21021795,1,explicit,True,2.0,duration_6,5,high,duration_high,0
P105,63,DLD,5,left,1.0,True,duration,2,0.42,1.483344223,6.428290844,1,explicit,True,2.0,duration_2,1,low,duration_low,1
P105,64,DLD,5,right,1.0,True,duration,5,0.78,2.715218455,7.343405008,1,explicit,True,3.0,duration_5,4,high,duration_high,0
P105,65,DLD,5,right,0.0,True,duration,4,0.66,2.304593711,8.178102016,0,explicit,True,3.0,duration_4,3,high,duration_high,0
P105,66,DLD,5,left,1.0,True,duration,1,0.3,1.07271948,4.830352068,0,explicit,True,4.0,duration_1,0,low,duration_low,1
P105,67,DLD,5,left,0.0,True,duration,1,0.3,1.07271948,2.913204908,0,explicit,True,4.0,duration_1,0,low,duration_low,1
P105,68,DLD,5,right,1.0,True,duration,4,0.66,2.304593711,3.632581949,0,explicit,True,3.0,duration_4,3,high,duration_high,0
P105,69,DLD,5,right,0.0,True,duration,6,0.9,3.125843199,3.064236164,0,explicit,True,3.0,duration_6,5,high,duration_high,0
P105,70,DLD,5,left,1.0,True,duration,3,0.54,1.893968967,2.014582872,0,explicit,True,2.0,duration_3,2,low,duration_low,1
P105,71,DLD,5,right,1.0,True,duration,5,0.78,2.715218455,8.41245985,0,explicit,True,2.0,duration_5,4,high,duration_high,0
P105,72,DLD,5,left,1.0,True,duration,2,0.42,1.483344223,9.729469061,0,explicit,True,2.0,duration_2,1,low,duration_low,1
P106,49,DLD,6,right,0.0,False,duration,6,0.9,3.125843199,15.90762901,1,explicit,True,,duration_6,5,high,duration_high,0
P106,50,DLD,6,left,1.0,False,duration,3,0.54,1.893968967,2.816282034,1,explicit,True,,duration_3,2,low,duration_low,1
P106,51,DLD,6,left,0.0,False,duration,2,0.42,1.483344223,1.265254974,0,explicit,True,,duration_2,1,low,duration_low,1
P106,52,DLD,6,right,1.0,False,duration,4,0.66,2.304593711,15.5753572,1,explicit,True,,duration_4,3,high,duration_high,0
P106,53,DLD,6,left,1.0,False,duration,1,0.3,1.07271948,4.981617928,1,explicit,True,,duration_1,0,low,duration_low,1
P106,54,DLD,6,right,1.0,False,duration,5,0.78,2.715218455,10.12825394,1,explicit,True,,duration_5,4,high,duration_high,0
P106,55,DLD,6,left,1.0,False,duration,1,0.3,1.07271948,5.681670904,1,explicit,True,2.0,duration_1,0,low,duration_low,1
P106,56,DLD,6,right,1.0,False,duration,4,0.66,2.304593711,3.099483013,1,explicit,True,3.0,duration_4,3,high,duration_high,0
P106,57,DLD,6,right,0.0,False,duration,5,0.78,2.715218455,1.382062912,0,explicit,True,3.0,duration_5,4,high,duration_high,0
P106,58,DLD,6,left,1.0,False,duration,3,0.54,1.893968967,5.031325102,0,explicit,True,4.0,duration_3,2,low,duration_low,1
P106,59,DLD,6,left,0.0,False,duration,2,0.42,1.483344223,5.033047915,0,explicit,True,4.0,duration_2,1,low,duration_low,1
P106,60,DLD,6,right,1.0,False,duration,6,0.9,3.125843199,10.52846503,1,explicit,True,3.0,duration_6,5,high,duration_high,0
P106,61,DLD,6,right,0.0,False,duration,4,0.66,2.304593711,3.482861042,0,explicit,True,3.0,duration_4,3,high,duration_high,0
P106,62,DLD,6,left,1.0,False,duration,1,0.3,1.07271948,4.631057978,1,explicit,True,2.0,duration_1,0,low,duration_low,1
P106,63,DLD,6,right,1.0,False,duration,6,0.9,3.125843199,4.464051008,1,explicit,True,2.0,duration_6,5,high,duration_high,0
P106,64,DLD,6,right,0.0,False,duration,5,0.78,2.715218455,4.345760107,0,explicit,True,2.0,duration_5,4,high,duration_high,0
P106,65,DLD,6,left,1.0,False,duration,2,0.42,1.483344223,4.399119854,0,explicit,True,2.0,duration_2,1,low,duration_low,1
P106,66,DLD,6,left,0.0,False,duration,3,0.54,1.893968967,4.932159185,0,explicit,True,3.0,duration_3,2,low,duration_low,1
P106,67,DLD,6,left,0.0,False,duration,3,0.54,1.893968967,8.896275043,0,explicit,True,2.0,duration_3,2,low,duration_low,1
P106,68,DLD,6,right,1.0,False,duration,6,0.9,3.125843199,8.961880922,1,explicit,True,3.0,duration_6,5,high,duration_high,0
P106,69,DLD,6,left,1.0,False,duration,2,0.42,1.483344223,2.016000986,1,explicit,True,2.0,duration_2,1,low,duration_low,1
P106,70,DLD,6,right,1.0,False,duration,5,0.78,2.715218455,0.7880749702,1,explicit,True,1.0,duration_5,4,high,duration_high,0
P106,71,DLD,6,right,0.0,False,duration,4,0.66,2.304593711,0.03236818314,0,explicit,True,2.0,duration_4,3,high,duration_high,0
P106,72,DLD,6,left,1.0,False,duration,1,0.3,1.07271948,1.481207848,1,explicit,True,2.0,duration_1,0,low,duration_low,1
P107,49,DLD,2,left,0.0,False,duration,2,0.42,1.483344223,6.24864912,0,explicit,True,,duration_2,1,low,duration_low,1
P107,50,DLD,2,right,1.0,False,duration,5,0.78,2.715218455,12.99589992,1,explicit,True,,duration_5,4,high,duration_high,0
P107,51,DLD,2,left,1.0,False,duration,3,0.54,1.893968967,3.6477561,1,explicit,True,,duration_3,2,low,duration_low,1
P107,52,DLD,2,left,0.0,False,duration,1,0.3,1.07271948,6.595471859,0,explicit,True,,duration_1,0,low,duration_low,1
P107,53,DLD,2,right,1.0,False,duration,6,0.9,3.125843199,6.111920118,0,explicit,True,,duration_6,5,high,duration_high,0
P107,54,DLD,2,right,0.0,False,duration,4,0.66,2.304593711,11.44625807,0,explicit,True,,duration_4,3,high,duration_high,0
P107,55,DLD,2,right,0.0,False,duration,6,0.9,3.125843199,5.046210051,1,explicit,True,2.0,duration_6,5,high,duration_high,0
P107,56,DLD,2,left,1.0,False,duration,3,0.54,1.893968967,3.962282896,1,explicit,True,3.0,duration_3,2,low,duration_low,1
P107,57,DLD,2,left,0.0,False,duration,2,0.42,1.483344223,3.666628122,0,explicit,True,2.0,duration_2,1,low,duration_low,1
P107,58,DLD,2,right,1.0,False,duration,4,0.66,2.304593711,6.047523022,0,explicit,True,1.0,duration_4,3,high,duration_high,0
P107,59,DLD,2,left,1.0,False,duration,1,0.3,1.07271948,3.398738861,0,explicit,True,2.0,duration_1,0,low,duration_low,1
P107,60,DLD,2,right,1.0,False,duration,5,0.78,2.715218455,6.594281912,0,explicit,True,1.0,duration_5,4,high,duration_high,0
P107,61,DLD,2,left,1.0,False,duration,1,0.3,1.07271948,4.479593039,0,explicit,True,2.0,duration_1,0,low,duration_low,1
P107,62,DLD,2,right,1.0,False,duration,4,0.66,2.304593711,6.964143038,0,explicit,True,3.0,duration_4,3,high,duration_high,0
P107,63,DLD,2,right,0.0,False,duration,6,0.9,3.125843199,4.713825941,1,explicit,True,3.0,duration_6,5,high,duration_high,0
P107,64,DLD,2,left,1.0,False,duration,3,0.54,1.893968967,2.797405958,1,explicit,True,4.0,duration_3,2,low,duration_low,1
P107,65,DLD,2,right,1.0,False,duration,5,0.78,2.715218455,3.730038881,1,explicit,True,4.0,duration_5,4,high,duration_high,0
P107,66,DLD,2,left,1.0,False,duration,2,0.42,1.483344223,2.215734959,1,explicit,True,3.0,duration_2,1,low,duration_low,1
P107,67,DLD,2,left,0.0,False,duration,3,0.54,1.893968967,4.030532122,0,explicit,True,3.0,duration_3,2,low,duration_low,1
P107,68,DLD,2,right,1.0,False,duration,6,0.9,3.125843199,4.061650991,0,explicit,True,3.0,duration_6,5,high,duration_high,0
P107,69,DLD,2,left,1.0,False,duration,2,0.42,1.483344223,2.716725111,0,explicit,True,3.0,duration_2,1,low,duration_low,1
P107,70,DLD,2,right,1.0,False,duration,5,0.78,2.715218455,3.164352894,0,explicit,True,3.0,duration_5,4,high,duration_high,0
P107,71,DLD,2,right,0.0,False,duration,4,0.66,2.304593711,7.36083889,1,explicit,True,3.0,duration_4,3,high,duration_high,0
P107,72,DLD,2,left,1.0,False,duration,1,0.3,1.07271948,3.529014111,1,explicit,True,3.0,duration_1,0,low,duration_low,1
P108,49,TLD,1,left,0.0,False,pitch,1,0.3,1.07271948,48.21494794,0,explicit,False,,pitch_1,6,low,pitch_low,3
P108,50,TLD,1,right,1.0,False,pitch,4,0.66,2.304593711,16.17577004,1,explicit,True,,pitch_4,9,high,pitch_high,2
P108,51,TLD,1,right,0.0,False,pitch,5,0.78,2.715218455,2.866239071,0,explicit,True,,pitch_5,10,high,pitch_high,2
P108,52,TLD,1,left,1.0,False,pitch,3,0.54,1.893968967,2.248311043,0,explicit,True,,pitch_3,8,low,pitch_low,3
P108,53,TLD,1,left,0.0,False,pitch,2,0.42,1.483344223,93.09493184,0,explicit,False,,pitch_2,7,low,pitch_low,3
P108,54,TLD,1,right,1.0,False,pitch,6,0.9,3.125843199,2.213295937,0,explicit,True,,pitch_6,11,high,pitch_high,2
P108,55,TLD,1,right,0.0,False,pitch,5,0.78,2.715218455,1.282361984,1,explicit,True,2.0,pitch_5,10,high,pitch_high,2
P108,56,TLD,1,left,1.0,False,pitch,2,0.42,1.483344223,1.247298002,1,explicit,True,2.0,pitch_2,7,low,pitch_low,3
P108,57,TLD,1,left,0.0,False,pitch,1,0.3,1.07271948,0.9483931065,0,explicit,True,2.0,pitch_1,6,low,pitch_low,3
P108,58,TLD,1,right,1.0,False,pitch,4,0.66,2.304593711,30.63668895,0,explicit,False,2.0,pitch_4,9,high,pitch_high,2
P108,59,TLD,1,left,1.0,False,pitch,3,0.54,1.893968967,1.082076788,0,explicit,True,2.0,pitch_3,8,low,pitch_low,3
P108,60,TLD,1,right,1.0,False,pitch,6,0.9,3.125843199,1.081783056,0,explicit,True,2.0,pitch_6,11,high,pitch_high,2
P108,61,TLD,1,right,0.0,False,pitch,4,0.66,2.304593711,1.946850061,1,explicit,True,2.0,pitch_4,9,high,pitch_high,2
P108,62,TLD,1,left,1.0,False,pitch,1,0.3,1.07271948,2.29954505,1,explicit,True,3.0,pitch_1,6,low,pitch_low,3
P108,63,TLD,1,right,1.0,False,pitch,6,0.9,3.125843199,0.8654079437,1,explicit,True,3.0,pitch_6,11,high,pitch_high,2
P108,64,TLD,1,right,0.0,False,pitch,5,0.78,2.715218455,0.8486590385,0,explicit,True,3.0,pitch_5,10,high,pitch_high,2
P108,65,TLD,1,left,1.0,False,pitch,2,0.42,1.483344223,3.429147959,0,explicit,True,3.0,pitch_2,7,low,pitch_low,3
P108,66,TLD,1,left,0.0,False,pitch,3,0.54,1.893968967,41.73412204,0,explicit,False,3.0,pitch_3,8,low,pitch_low,3
P108,67,TLD,1,right,1.0,False,pitch,6,0.9,3.125843199,2.862662077,0,explicit,True,2.0,pitch_6,11,high,pitch_high,2
P108,68,TLD,1,left,1.0,False,pitch,3,0.54,1.893968967,1.748746872,0,explicit,True,3.0,pitch_3,8,low,pitch_low,3
P108,69,TLD,1,right,1.0,False,pitch,4,0.66,2.304593711,3.928864002,0,explicit,True,2.0,pitch_4,9,high,pitch_high,2
P108,70,TLD,1,left,1.0,False,pitch,2,0.42,1.483344223,4.63173604,0,explicit,True,2.0,pitch_2,7,low,pitch_low,3
P108,71,TLD,1,left,0.0,False,pitch,1,0.3,1.07271948,11.1781671,0,explicit,True,3.0,pitch_1,6,low,pitch_low,3
P108,72,TLD,1,right,1.0,False,pitch,5,0.78,2.715218455,1.913366079,0,explicit,True,3.0,pitch_5,10,high,pitch_high,2
P109,49,TLD,6,right,0.0,False,pitch,6,0.9,3.125843199,6.982149839,1,explicit,True,,pitch_6,11,high,pitch_high,2
P109,50,TLD,6,left,1.0,False,pitch,3,0.54,1.893968967,6.230458975,1,explicit,True,,pitch_3,8,low,pitch_low,3
P109,51,TLD,6,left,0.0,False,pitch,2,0.42,1.483344223,3.165829897,0,explicit,True,,pitch_2,7,low,pitch_low,3
P109,52,TLD,6,right,1.0,False,pitch,4,0.66,2.304593711,5.998253107,1,explicit,True,,pitch_4,9,high,pitch_high,2
P109,53,TLD,6,left,1.0,False,pitch,1,0.3,1.07271948,5.129014969,1,explicit,True,,pitch_1,6,low,pitch_low,3
P109,54,TLD,6,right,1.0,False,pitch,5,0.78,2.715218455,2.030677795,1,explicit,True,,pitch_5,10,high,pitch_high,2
P109,55,TLD,6,left,1.0,False,pitch,1,0.3,1.07271948,2.415137053,1,explicit,True,2.0,pitch_1,6,low,pitch_low,3
P109,56,TLD,6,right,1.0,False,pitch,4,0.66,2.304593711,1.77992487,1,explicit,True,3.0,pitch_4,9,high,pitch_high,2
P109,57,TLD,6,right,0.0,False,pitch,5,0.78,2.715218455,0.9146101475,0,explicit,True,3.0,pitch_5,10,high,pitch_high,2
P109,58,TLD,6,left,1.0,False,pitch,3,0.54,1.893968967,2.030189991,1,explicit,True,4.0,pitch_3,8,low,pitch_low,3
P109,59,TLD,6,left,0.0,False,pitch,2,0.42,1.483344223,5.249035835,0,explicit,True,4.0,pitch_2,7,low,pitch_low,3
P109,60,TLD,6,right,1.0,False,pitch,6,0.9,3.125843199,2.714659929,1,explicit,True,3.0,pitch_6,11,high,pitch_high,2
P109,61,TLD,6,right,0.0,False,pitch,4,0.66,2.304593711,0.9647779465,0,explicit,True,3.0,pitch_4,9,high,pitch_high,2
P109,62,TLD,6,left,1.0,False,pitch,1,0.3,1.07271948,2.331201077,1,explicit,True,2.0,pitch_1,6,low,pitch_low,3
P109,63,TLD,6,right,1.0,False,pitch,6,0.9,3.125843199,1.430058002,1,explicit,True,2.0,pitch_6,11,high,pitch_high,2
P109,64,TLD,6,right,0.0,False,pitch,5,0.78,2.715218455,2.049175024,1,explicit,True,2.0,pitch_5,10,high,pitch_high,2
P109,65,TLD,6,left,1.0,False,pitch,2,0.42,1.483344223,2.179418087,1,explicit,True,2.0,pitch_2,7,low,pitch_low,3
P109,66,TLD,6,left,0.0,False,pitch,3,0.54,1.893968967,5.198192835,1,explicit,True,3.0,pitch_3,8,low,pitch_low,3
P109,67,TLD,6,left,0.0,False,pitch,3,0.54,1.893968967,1.082547903,0,explicit,True,2.0,pitch_3,8,low,pitch_low,3
P109,68,TLD,6,right,1.0,False,pitch,6,0.9,3.125843199,2.183465004,0,explicit,True,3.0,pitch_6,11,high,pitch_high,2
P109,69,TLD,6,left,1.0,False,pitch,2,0.42,1.483344223,2.346781015,0,explicit,True,2.0,pitch_2,7,low,pitch_low,3
P109,70,TLD,6,right,1.0,False,pitch,5,0.78,2.715218455,5.195611954,1,explicit,True,1.0,pitch_5,10,high,pitch_high,2
P109,71,TLD,6,right,0.0,False,pitch,4,0.66,2.304593711,2.517138958,0,explicit,True,2.0,pitch_4,9,high,pitch_high,2
P109,72,TLD,6,left,1.0,False,pitch,1,0.3,1.07271948,8.695719004,0,explicit,True,2.0,pitch_1,6,low,pitch_low,3
P110,49,TLD,5,right,0.0,True,duration,5,0.78,2.715218455,5.263184786,0,explicit,True,,duration_5,4,high,duration_high,0
P110,50,TLD,5,left,1.0,True,duration,2,0.42,1.483344223,6.229990959,1,explicit,True,,duration_2,1,low,duration_low,1
P110,51,TLD,5,left,0.0,True,duration,1,0.3,1.07271948,6.031394005,0,explicit,True,,duration_1,0,low,duration_low,1
P110,52,TLD,5,right,1.0,True,duration,4,0.66,2.304593711,2.566476107,0,explicit,True,,duration_4,3,high,duration_high,0
P110,53,TLD,5,left,1.0,True,duration,3,0.54,1.893968967,1.997303009,1,explicit,True,,duration_3,2,low,duration_low,1
P110,54,TLD,5,right,1.0,True,duration,6,0.9,3.125843199,2.03224802,1,explicit,True,,duration_6,5,high,duration_high,0
P110,55,TLD,5,left,1.0,True,duration,1,0.3,1.07271948,1.764332771,1,explicit,True,2.0,duration_1,0,low,duration_low,1
P110,56,TLD,5,right,1.0,True,duration,4,0.66,2.304593711,2.882573843,1,explicit,True,3.0,duration_4,3,high,duration_high,0
P110,57,TLD,5,right,0.0,True,duration,5,0.78,2.715218455,2.814504147,0,explicit,True,3.0,duration_5,4,high,duration_high,0
P110,58,TLD,5,left,1.0,True,duration,3,0.54,1.893968967,2.063251972,0,explicit,True,4.0,duration_3,2,low,duration_low,1
P110,59,TLD,5,left,0.0,True,duration,2,0.42,1.483344223,5.89878583,1,explicit,True,4.0,duration_2,1,low,duration_low,1
P110,60,TLD,5,right,1.0,True,duration,6,0.9,3.125843199,7.097944975,1,explicit,True,3.0,duration_6,5,high,duration_high,0
P110,61,TLD,5,left,1.0,True,duration,3,0.54,1.893968967,2.148057938,1,explicit,True,3.0,duration_3,2,low,duration_low,1
P110,62,TLD,5,right,1.0,True,duration,6,0.9,3.125843199,1.348836184,1,explicit,True,2.0,duration_6,5,high,duration_high,0
P110,63,TLD,5,left,1.0,True,duration,2,0.42,1.483344223,1.781659842,1,explicit,True,2.0,duration_2,1,low,duration_low,1
P110,64,TLD,5,right,1.0,True,duration,5,0.78,2.715218455,4.578086853,1,explicit,True,3.0,duration_5,4,high,duration_high,0
P110,65,TLD,5,right,0.0,True,duration,4,0.66,2.304593711,3.732500076,0,explicit,True,3.0,duration_4,3,high,duration_high,0
P110,66,TLD,5,left,1.0,True,duration,1,0.3,1.07271948,3.397367001,0,explicit,True,4.0,duration_1,0,low,duration_low,1
P110,67,TLD,5,left,0.0,True,duration,1,0.3,1.07271948,2.430802107,0,explicit,True,4.0,duration_1,0,low,duration_low,1
P110,68,TLD,5,right,1.0,True,duration,4,0.66,2.304593711,1.44839406,0,explicit,True,3.0,duration_4,3,high,duration_high,0
P110,69,TLD,5,right,0.0,True,duration,6,0.9,3.125843199,2.314904928,1,explicit,True,3.0,duration_6,5,high,duration_high,0
P110,70,TLD,5,left,1.0,True,duration,3,0.54,1.893968967,2.382964134,1,explicit,True,2.0,duration_3,2,low,duration_low,1
P110,71,TLD,5,right,1.0,True,duration,5,0.78,2.715218455,1.982405901,0,explicit,True,2.0,duration_5,4,high,duration_high,0
P110,72,TLD,5,left,1.0,True,duration,2,0.42,1.483344223,1.317874193,0,explicit,True,2.0,duration_2,1,low,duration_low,1
P111,49,TLD,3,left,0.0,False,duration,3,0.54,1.893968967,1.196757793,1,explicit,True,,duration_3,2,low,duration_low,1
P111,50,TLD,3,right,1.0,False,duration,6,0.9,3.125843199,1.414716959,1,explicit,True,,duration_6,5,high,duration_high,0
P111,51,TLD,3,left,1.0,False,duration,2,0.42,1.483344223,0.9816739559,1,explicit,True,,duration_2,1,low,duration_low,1
P111,52,TLD,3,right,1.0,False,duration,5,0.78,2.715218455,1.814477921,1,explicit,True,,duration_5,4,high,duration_high,0
P111,53,TLD,3,right,0.0,False,duration,4,0.66,2.304593711,0.6482291222,0,explicit,True,,duration_4,3,high,duration_high,0
P111,54,TLD,3,left,1.0,False,duration,1,0.3,1.07271948,3.096884966,1,explicit,True,,duration_1,0,low,duration_low,1
P111,55,TLD,3,left,0.0,False,duration,2,0.42,1.483344223,1.962972164,0,explicit,True,3.0,duration_2,1,low,duration_low,1
P111,56,TLD,3,right,1.0,False,duration,5,0.78,2.715218455,3.699306011,1,explicit,True,3.0,duration_5,4,high,duration_high,0
P111,57,TLD,3,left,1.0,False,duration,3,0.54,1.893968967,10.42898512,1,explicit,True,3.0,duration_3,2,low,duration_low,1
P111,58,TLD,3,left,0.0,False,duration,1,0.3,1.07271948,0.9318649769,0,explicit,True,2.0,duration_1,0,low,duration_low,1
P111,59,TLD,3,right,1.0,False,duration,6,0.9,3.125843199,1.797306061,0,explicit,True,2.0,duration_6,5,high,duration_high,0
P111,60,TLD,3,right,0.0,False,duration,4,0.66,2.304593711,1.214994907,0,explicit,True,3.0,duration_4,3,high,duration_high,0
P111,61,TLD,3,right,0.0,False,duration,6,0.9,3.125843199,1.164488077,0,explicit,True,2.0,duration_6,5,high,duration_high,0
P111,62,TLD,3,left,1.0,False,duration,3,0.54,1.893968967,0.5487360954,0,explicit,True,3.0,duration_3,2,low,duration_low,1
P111,63,TLD,3,left,0.0,False,duration,2,0.42,1.483344223,1.550956964,1,explicit,True,2.0,duration_2,1,low,duration_low,1
P111,64,TLD,3,right,1.0,False,duration,4,0.66,2.304593711,1.549502134,0,explicit,True,1.0,duration_4,3,high,duration_high,0
P111,65,TLD,3,left,1.0,False,duration,1,0.3,1.07271948,1.064831018,1,explicit,True,2.0,duration_1,0,low,duration_low,1
P111,66,TLD,3,right,1.0,False,duration,5,0.78,2.715218455,1.0652349,1,explicit,True,1.0,duration_5,4,high,duration_high,0
P111,67,TLD,3,right,0.0,False,duration,5,0.78,2.715218455,0.3986959457,0,explicit,True,2.0,duration_5,4,high,duration_high,0
P111,68,TLD,3,left,1.0,False,duration,2,0.42,1.483344223,1.098862171,0,explicit,True,3.0,duration_2,1,low,duration_low,1
P111,69,TLD,3,left,0.0,False,duration,1,0.3,1.07271948,1.782015085,0,explicit,True,3.0,duration_1,0,low,duration_low,1
P111,70,TLD,3,right,1.0,False,duration,4,0.66,2.304593711,1.648191929,0,explicit,True,3.0,duration_4,3,high,duration_high,0
P111,71,TLD,3,left,1.0,False,duration,3,0.54,1.893968967,1.365061045,1,explicit,True,3.0,duration_3,2,low,duration_low,1
P111,72,TLD,3,right,1.0,False,duration,6,0.9,3.125843199,4.963187933,1,explicit,True,2.0,duration_6,5,high,duration_high,0
P113,49,TLD,2,left,0.0,True,pitch,2,0.42,1.483344223,1.50297904,0,explicit,True,,pitch_2,7,low,pitch_low,3
P113,50,TLD,2,right,1.0,True,pitch,5,0.78,2.715218455,3.947533846,1,explicit,True,,pitch_5,10,high,pitch_high,2
P113,51,TLD,2,left,1.0,True,pitch,3,0.54,1.893968967,1.613495111,1,explicit,True,,pitch_3,8,low,pitch_low,3
P113,52,TLD,2,left,0.0,True,pitch,1,0.3,1.07271948,1.097410917,0,explicit,True,,pitch_1,6,low,pitch_low,3
P113,53,TLD,2,right,1.0,True,pitch,6,0.9,3.125843199,0.8976969719,1,explicit,True,,pitch_6,11,high,pitch_high,2
P113,54,TLD,2,right,0.0,True,pitch,4,0.66,2.304593711,0.9484860897,0,explicit,True,,pitch_4,9,high,pitch_high,2
P113,55,TLD,2,right,0.0,True,pitch,6,0.9,3.125843199,1.967288017,0,explicit,True,2.0,pitch_6,11,high,pitch_high,2
P113,56,TLD,2,left,1.0,True,pitch,3,0.54,1.893968967,3.964219093,1,explicit,True,3.0,pitch_3,8,low,pitch_low,3
P113,57,TLD,2,left,0.0,True,pitch,2,0.42,1.483344223,0.881731987,0,explicit,True,2.0,pitch_2,7,low,pitch_low,3
P113,58,TLD,2,right,1.0,True,pitch,4,0.66,2.304593711,1.29954505,1,explicit,True,1.0,pitch_4,9,high,pitch_high,2
P113,59,TLD,2,left,1.0,True,pitch,1,0.3,1.07271948,1.067446947,0,explicit,True,2.0,pitch_1,6,low,pitch_low,3
P113,60,TLD,2,right,1.0,True,pitch,5,0.78,2.715218455,2.664843082,1,explicit,True,1.0,pitch_5,10,high,pitch_high,2
P113,61,TLD,2,left,1.0,True,pitch,1,0.3,1.07271948,16.49100685,1,explicit,True,2.0,pitch_1,6,low,pitch_low,3
P113,62,TLD,2,right,1.0,True,pitch,4,0.66,2.304593711,1.333534956,1,explicit,True,3.0,pitch_4,9,high,pitch_high,2
P113,63,TLD,2,right,0.0,True,pitch,6,0.9,3.125843199,1.498533964,0,explicit,True,3.0,pitch_6,11,high,pitch_high,2
P113,64,TLD,2,left,1.0,True,pitch,3,0.54,1.893968967,0.8640789986,0,explicit,True,4.0,pitch_3,8,low,pitch_low,3
P113,65,TLD,2,right,1.0,True,pitch,5,0.78,2.715218455,6.910288095,1,explicit,True,4.0,pitch_5,10,high,pitch_high,2
P113,66,TLD,2,left,1.0,True,pitch,2,0.42,1.483344223,3.396471977,1,explicit,True,3.0,pitch_2,7,low,pitch_low,3
P113,67,TLD,2,left,0.0,True,pitch,3,0.54,1.893968967,1.833917856,0,explicit,True,3.0,pitch_3,8,low,pitch_low,3
P113,68,TLD,2,right,1.0,True,pitch,6,0.9,3.125843199,4.14626193,1,explicit,True,3.0,pitch_6,11,high,pitch_high,2
P113,69,TLD,2,left,1.0,True,pitch,2,0.42,1.483344223,3.080503941,1,explicit,True,3.0,pitch_2,7,low,pitch_low,3
P113,70,TLD,2,right,1.0,True,pitch,5,0.78,2.715218455,2.148929834,1,explicit,True,3.0,pitch_5,10,high,pitch_high,2
P113,71,TLD,2,right,0.0,True,pitch,4,0.66,2.304593711,5.56171608,1,explicit,True,3.0,pitch_4,9,high,pitch_high,2
P113,72,TLD,2,left,1.0,True,pitch,1,0.3,1.07271948,1.04902792,1,explicit,True,3.0,pitch_1,6,low,pitch_low,3
P114,49,TLD,2,left,0.0,False,duration,2,0.42,1.483344223,1.568722963,1,explicit,True,,duration_2,1,low,duration_low,1
P114,50,TLD,2,right,1.0,False,duration,5,0.78,2.715218455,1.63357091,1,explicit,True,,duration_5,4,high,duration_high,0
P114,51,TLD,2,left,1.0,False,duration,3,0.54,1.893968967,0.9352779388,1,explicit,True,,duration_3,2,low,duration_low,1
P114,52,TLD,2,left,0.0,False,duration,1,0.3,1.07271948,1.217884064,0,explicit,True,,duration_1,0,low,duration_low,1
P114,53,TLD,2,right,1.0,False,duration,6,0.9,3.125843199,1.567592144,1,explicit,True,,duration_6,5,high,duration_high,0
P114,54,TLD,2,right,0.0,False,duration,4,0.66,2.304593711,1.868685961,0,explicit,True,,duration_4,3,high,duration_high,0
P114,55,TLD,2,right,0.0,False,duration,6,0.9,3.125843199,1.500794888,1,explicit,True,2.0,duration_6,5,high,duration_high,0
P114,56,TLD,2,left,1.0,False,duration,3,0.54,1.893968967,0.9838709831,1,explicit,True,3.0,duration_3,2,low,duration_low,1
P114,57,TLD,2,left,0.0,False,duration,2,0.42,1.483344223,1.617842197,0,explicit,True,2.0,duration_2,1,low,duration_low,1
P114,58,TLD,2,right,1.0,False,duration,4,0.66,2.304593711,1.734848976,0,explicit,True,1.0,duration_4,3,high,duration_high,0
P114,59,TLD,2,left,1.0,False,duration,1,0.3,1.07271948,2.317734957,1,explicit,True,2.0,duration_1,0,low,duration_low,1
P114,60,TLD,2,right,1.0,False,duration,5,0.78,2.715218455,1.117694139,1,explicit,True,1.0,duration_5,4,high,duration_high,0
P114,61,TLD,2,left,1.0,False,duration,1,0.3,1.07271948,0.6508150101,1,explicit,True,2.0,duration_1,0,low,duration_low,1
P114,62,TLD,2,right,1.0,False,duration,4,0.66,2.304593711,1.433032036,1,explicit,True,3.0,duration_4,3,high,duration_high,0
P114,63,TLD,2,right,0.0,False,duration,6,0.9,3.125843199,1.268576145,0,explicit,True,3.0,duration_6,5,high,duration_high,0
P114,64,TLD,2,left,1.0,False,duration,3,0.54,1.893968967,1.301856995,0,explicit,True,4.0,duration_3,2,low,duration_low,1
P114,65,TLD,2,right,1.0,False,duration,5,0.78,2.715218455,1.351504087,0,explicit,True,4.0,duration_5,4,high,duration_high,0
P114,66,TLD,2,left,1.0,False,duration,2,0.42,1.483344223,1.667309999,0,explicit,True,3.0,duration_2,1,low,duration_low,1
P114,67,TLD,2,left,0.0,False,duration,3,0.54,1.893968967,2.018561125,1,explicit,True,3.0,duration_3,2,low,duration_low,1
P114,68,TLD,2,right,1.0,False,duration,6,0.9,3.125843199,1.335279942,1,explicit,True,3.0,duration_6,5,high,duration_high,0
P114,69,TLD,2,left,1.0,False,duration,2,0.42,1.483344223,1.567646027,1,explicit,True,3.0,duration_2,1,low,duration_low,1
P114,70,TLD,2,right,1.0,False,duration,5,0.78,2.715218455,1.435388088,1,explicit,True,3.0,duration_5,4,high,duration_high,0
P114,71,TLD,2,right,0.0,False,duration,4,0.66,2.304593711,1.551290035,0,explicit,True,3.0,duration_4,3,high,duration_high,0
P114,72,TLD,2,left,1.0,False,duration,1,0.3,1.07271948,2.168346167,0,explicit,True,3.0,duration_1,0,low,duration_low,1
P27,49,DLD,1,left,0.0,False,pitch,1,0.3,1.07271948,27.10899305,0,explicit,False,,pitch_1,6,low,pitch_low,3
P27,50,DLD,1,right,1.0,False,pitch,4,0.66,2.304593711,8.179809809,0,explicit,True,,pitch_4,9,high,pitch_high,2
P27,51,DLD,1,right,0.0,False,pitch,5,0.78,2.715218455,9.995641947,0,explicit,True,,pitch_5,10,high,pitch_high,2
P27,52,DLD,1,left,1.0,False,pitch,3,0.54,1.893968967,6.414720058,0,explicit,True,,pitch_3,8,low,pitch_low,3
P27,53,DLD,1,left,0.0,False,pitch,2,0.42,1.483344223,0.09900403023,1,explicit,True,,pitch_2,7,low,pitch_low,3
P27,54,DLD,1,right,1.0,False,pitch,6,0.9,3.125843199,13.2588799,1,explicit,True,,pitch_6,11,high,pitch_high,2
P27,55,DLD,1,right,0.0,False,pitch,5,0.78,2.715218455,7.012847185,0,explicit,True,2.0,pitch_5,10,high,pitch_high,2
P27,56,DLD,1,left,1.0,False,pitch,2,0.42,1.483344223,9.395215988,1,explicit,True,2.0,pitch_2,7,low,pitch_low,3
P27,57,DLD,1,left,0.0,False,pitch,1,0.3,1.07271948,3.549454927,0,explicit,True,2.0,pitch_1,6,low,pitch_low,3
P27,58,DLD,1,right,1.0,False,pitch,4,0.66,2.304593711,4.396857023,1,explicit,True,2.0,pitch_4,9,high,pitch_high,2
P27,59,DLD,1,left,1.0,False,pitch,3,0.54,1.893968967,7.931206942,1,explicit,True,2.0,pitch_3,8,low,pitch_low,3
P27,60,DLD,1,right,1.0,False,pitch,6,0.9,3.125843199,4.981329918,1,explicit,True,2.0,pitch_6,11,high,pitch_high,2
P27,61,DLD,1,right,0.0,False,pitch,4,0.66,2.304593711,0.197717905,1,explicit,True,2.0,pitch_4,9,high,pitch_high,2
P27,62,DLD,1,left,1.0,False,pitch,1,0.3,1.07271948,4.314284086,1,explicit,True,3.0,pitch_1,6,low,pitch_low,3
P27,63,DLD,1,right,1.0,False,pitch,6,0.9,3.125843199,4.662069082,1,explicit,True,3.0,pitch_6,11,high,pitch_high,2
P27,64,DLD,1,right,0.0,False,pitch,5,0.78,2.715218455,3.113902092,0,explicit,True,3.0,pitch_5,10,high,pitch_high,2
P27,65,DLD,1,left,1.0,False,pitch,2,0.42,1.483344223,4.732093096,1,explicit,True,3.0,pitch_2,7,low,pitch_low,3
P27,66,DLD,1,left,0.0,False,pitch,3,0.54,1.893968967,4.514581919,0,explicit,True,3.0,pitch_3,8,low,pitch_low,3
P27,67,DLD,1,right,1.0,False,pitch,6,0.9,3.125843199,3.578956127,1,explicit,True,2.0,pitch_6,11,high,pitch_high,2
P27,68,DLD,1,left,1.0,False,pitch,3,0.54,1.893968967,4.397901058,1,explicit,True,3.0,pitch_3,8,low,pitch_low,3
P27,69,DLD,1,right,1.0,False,pitch,4,0.66,2.304593711,3.933005095,1,explicit,True,2.0,pitch_4,9,high,pitch_high,2
P27,70,DLD,1,left,1.0,False,pitch,2,0.42,1.483344223,2.231589794,1,explicit,True,2.0,pitch_2,7,low,pitch_low,3
P27,71,DLD,1,left,0.0,False,pitch,1,0.3,1.07271948,2.316075087,0,explicit,True,3.0,pitch_1,6,low,pitch_low,3
P27,72,DLD,1,right,1.0,False,pitch,5,0.78,2.715218455,6.131957054,1,explicit,True,3.0,pitch_5,10,high,pitch_high,2
P30,49,TLD,1,left,0.0,False,pitch,1,0.3,1.07271948,1.202677011,0,explicit,True,,pitch_1,6,low,pitch_low,3
P30,50,TLD,1,right,1.0,False,pitch,4,0.66,2.304593711,1.015668154,1,explicit,True,,pitch_4,9,high,pitch_high,2
P30,51,TLD,1,right,0.0,False,pitch,5,0.78,2.715218455,0.09832715988,0,explicit,True,,pitch_5,10,high,pitch_high,2
P30,52,TLD,1,left,1.0,False,pitch,3,0.54,1.893968967,0.7331190109,0,explicit,True,,pitch_3,8,low,pitch_low,3
P30,53,TLD,1,left,0.0,False,pitch,2,0.42,1.483344223,0.7831101418,0,explicit,True,,pitch_2,7,low,pitch_low,3
P30,54,TLD,1,right,1.0,False,pitch,6,0.9,3.125843199,0.8982310295,0,explicit,True,,pitch_6,11,high,pitch_high,2
P30,55,TLD,1,right,0.0,False,pitch,5,0.78,2.715218455,1.865966082,1,explicit,True,2.0,pitch_5,10,high,pitch_high,2
P30,56,TLD,1,left,1.0,False,pitch,2,0.42,1.483344223,3.64693594,1,explicit,True,2.0,pitch_2,7,low,pitch_low,3
P30,57,TLD,1,left,0.0,False,pitch,1,0.3,1.07271948,1.648034096,0,explicit,True,2.0,pitch_1,6,low,pitch_low,3
P30,58,TLD,1,right,1.0,False,pitch,4,0.66,2.304593711,0.8320291042,0,explicit,True,2.0,pitch_4,9,high,pitch_high,2
P30,59,TLD,1,left,1.0,False,pitch,3,0.54,1.893968967,0.4660871029,0,explicit,True,2.0,pitch_3,8,low,pitch_low,3
P30,60,TLD,1,right,1.0,False,pitch,6,0.9,3.125843199,1.815747976,1,explicit,True,2.0,pitch_6,11,high,pitch_high,2
P30,61,TLD,1,right,0.0,False,pitch,4,0.66,2.304593711,1.182350159,0,explicit,True,2.0,pitch_4,9,high,pitch_high,2
P30,62,TLD,1,left,1.0,False,pitch,1,0.3,1.07271948,1.13112402,0,explicit,True,3.0,pitch_1,6,low,pitch_low,3
P30,63,TLD,1,right,1.0,False,pitch,6,0.9,3.125843199,1.049225092,1,explicit,True,3.0,pitch_6,11,high,pitch_high,2
P30,64,TLD,1,right,0.0,False,pitch,5,0.78,2.715218455,0.8981740475,1,explicit,True,3.0,pitch_5,10,high,pitch_high,2
P30,65,TLD,1,left,1.0,False,pitch,2,0.42,1.483344223,0.4498090744,1,explicit,True,3.0,pitch_2,7,low,pitch_low,3
P30,66,TLD,1,left,0.0,False,pitch,3,0.54,1.893968967,0.3995831013,0,explicit,True,3.0,pitch_3,8,low,pitch_low,3
P30,67,TLD,1,right,1.0,False,pitch,6,0.9,3.125843199,1.215283871,1,explicit,True,2.0,pitch_6,11,high,pitch_high,2
P30,68,TLD,1,left,1.0,False,pitch,3,0.54,1.893968967,1.04864502,1,explicit,True,3.0,pitch_3,8,low,pitch_low,3
P30,69,TLD,1,right,1.0,False,pitch,4,0.66,2.304593711,0.8300139904,0,explicit,True,2.0,pitch_4,9,high,pitch_high,2
P30,70,TLD,1,left,1.0,False,pitch,2,0.42,1.483344223,0.8158459663,1,explicit,True,2.0,pitch_2,7,low,pitch_low,3
P30,71,TLD,1,left,0.0,False,pitch,1,0.3,1.07271948,1.248084068,0,explicit,True,3.0,pitch_1,6,low,pitch_low,3
P30,72,TLD,1,right,1.0,False,pitch,5,0.78,2.715218455,1.432448149,0,explicit,True,3.0,pitch_5,10,high,pitch_high,2
P33,49,TLD,1,left,0.0,False,duration,1,0.3,1.07271948,5.55369997,1,explicit,True,,duration_1,0,low,duration_low,1
P33,50,TLD,1,right,1.0,False,duration,4,0.66,2.304593711,2.26493597,1,explicit,True,,duration_4,3,high,duration_high,0
P33,51,TLD,1,right,0.0,False,duration,5,0.78,2.715218455,1.464540005,0,explicit,True,,duration_5,4,high,duration_high,0
P33,52,TLD,1,left,1.0,False,duration,3,0.54,1.893968967,2.365574837,1,explicit,True,,duration_3,2,low,duration_low,1
P33,53,TLD,1,left,0.0,False,duration,2,0.42,1.483344223,1.996505976,0,explicit,True,,duration_2,1,low,duration_low,1
P33,54,TLD,1,right,1.0,False,duration,6,0.9,3.125843199,1.615108967,1,explicit,True,,duration_6,5,high,duration_high,0
P33,55,TLD,1,right,0.0,False,duration,5,0.78,2.715218455,2.146371126,0,explicit,True,2.0,duration_5,4,high,duration_high,0
P33,56,TLD,1,left,1.0,False,duration,2,0.42,1.483344223,1.398269176,1,explicit,True,2.0,duration_2,1,low,duration_low,1
P33,57,TLD,1,left,0.0,False,duration,1,0.3,1.07271948,2.546117067,0,explicit,True,2.0,duration_1,0,low,duration_low,1
P33,58,TLD,1,right,1.0,False,duration,4,0.66,2.304593711,1.415517807,1,explicit,True,2.0,duration_4,3,high,duration_high,0
P33,59,TLD,1,left,1.0,False,duration,3,0.54,1.893968967,1.446611881,1,explicit,True,2.0,duration_3,2,low,duration_low,1
P33,60,TLD,1,right,1.0,False,duration,6,0.9,3.125843199,1.815572977,1,explicit,True,2.0,duration_6,5,high,duration_high,0
P33,61,TLD,1,right,0.0,False,duration,4,0.66,2.304593711,3.231117964,0,explicit,True,2.0,duration_4,3,high,duration_high,0
P33,62,TLD,1,left,1.0,False,duration,1,0.3,1.07271948,0.1333010197,1,explicit,True,3.0,duration_1,0,low,duration_low,1
P33,63,TLD,1,right,1.0,False,duration,6,0.9,3.125843199,1.829936028,1,explicit,True,3.0,duration_6,5,high,duration_high,0
P33,64,TLD,1,right,0.0,False,duration,5,0.78,2.715218455,0.6818950176,0,explicit,True,3.0,duration_5,4,high,duration_high,0
P33,65,TLD,1,left,1.0,False,duration,2,0.42,1.483344223,2.04637599,1,explicit,True,3.0,duration_2,1,low,duration_low,1
P33,66,TLD,1,left,0.0,False,duration,3,0.54,1.893968967,2.04755187,1,explicit,True,3.0,duration_3,2,low,duration_low,1
P33,67,TLD,1,right,1.0,False,duration,6,0.9,3.125843199,0.9659340382,1,explicit,True,2.0,duration_6,5,high,duration_high,0
P33,68,TLD,1,left,1.0,False,duration,3,0.54,1.893968967,1.315149069,1,explicit,True,3.0,duration_3,2,low,duration_low,1
P33,69,TLD,1,right,1.0,False,duration,4,0.66,2.304593711,1.616520882,1,explicit,True,2.0,duration_4,3,high,duration_high,0
P33,70,TLD,1,left,1.0,False,duration,2,0.42,1.483344223,2.281219006,1,explicit,True,2.0,duration_2,1,low,duration_low,1
P33,71,TLD,1,left,0.0,False,duration,1,0.3,1.07271948,2.080229044,1,explicit,True,3.0,duration_1,0,low,duration_low,1
P33,72,TLD,1,right,1.0,False,duration,5,0.78,2.715218455,0.7324988842,1,explicit,True,3.0,duration_5,4,high,duration_high,0
P37,49,TLD,3,left,0.0,False,duration,3,0.54,1.893968967,3.710798025,1,explicit,True,,duration_3,2,low,duration_low,1
P37,50,TLD,3,right,1.0,False,duration,6,0.9,3.125843199,3.183483124,1,explicit,True,,duration_6,5,high,duration_high,0
P37,51,TLD,3,left,1.0,False,duration,2,0.42,1.483344223,2.981008053,1,explicit,True,,duration_2,1,low,duration_low,1
P37,52,TLD,3,right,1.0,False,duration,5,0.78,2.715218455,1.715579987,1,explicit,True,,duration_5,4,high,duration_high,0
P37,53,TLD,3,right,0.0,False,duration,4,0.66,2.304593711,0.7658278942,0,explicit,True,,duration_4,3,high,duration_high,0
P37,54,TLD,3,left,1.0,False,duration,1,0.3,1.07271948,0.01550412178,0,explicit,True,,duration_1,0,low,duration_low,1
P37,55,TLD,3,left,0.0,False,duration,2,0.42,1.483344223,5.864526033,1,explicit,True,3.0,duration_2,1,low,duration_low,1
P37,56,TLD,3,right,1.0,False,duration,5,0.78,2.715218455,5.91117692,1,explicit,True,3.0,duration_5,4,high,duration_high,0
P37,57,TLD,3,left,1.0,False,duration,3,0.54,1.893968967,1.348424912,1,explicit,True,3.0,duration_3,2,low,duration_low,1
P37,58,TLD,3,left,0.0,False,duration,1,0.3,1.07271948,1.399190187,0,explicit,True,2.0,duration_1,0,low,duration_low,1
P37,59,TLD,3,right,1.0,False,duration,6,0.9,3.125843199,0.1651191711,1,explicit,True,2.0,duration_6,5,high,duration_high,0
P37,60,TLD,3,right,0.0,False,duration,4,0.66,2.304593711,1.130413055,1,explicit,True,3.0,duration_4,3,high,duration_high,0
P37,61,TLD,3,right,0.0,False,duration,6,0.9,3.125843199,0.2990739346,1,explicit,True,2.0,duration_6,5,high,duration_high,0
P37,62,TLD,3,left,1.0,False,duration,3,0.54,1.893968967,0.8307449818,0,explicit,True,3.0,duration_3,2,low,duration_low,1
P37,63,TLD,3,left,0.0,False,duration,2,0.42,1.483344223,3.365922928,0,explicit,True,2.0,duration_2,1,low,duration_low,1
P37,64,TLD,3,right,1.0,False,duration,4,0.66,2.304593711,2.298211813,0,explicit,True,1.0,duration_4,3,high,duration_high,0
P37,65,TLD,3,left,1.0,False,duration,1,0.3,1.07271948,0.03261804581,0,explicit,True,2.0,duration_1,0,low,duration_low,1
P37,66,TLD,3,right,1.0,False,duration,5,0.78,2.715218455,8.045378923,1,explicit,True,1.0,duration_5,4,high,duration_high,0
P37,67,TLD,3,right,0.0,False,duration,5,0.78,2.715218455,5.495409012,0,explicit,True,2.0,duration_5,4,high,duration_high,0
P37,68,TLD,3,left,1.0,False,duration,2,0.42,1.483344223,6.595549822,1,explicit,True,3.0,duration_2,1,low,duration_low,1
P37,69,TLD,3,left,0.0,False,duration,1,0.3,1.07271948,3.146619082,1,explicit,True,3.0,duration_1,0,low,duration_low,1
P37,70,TLD,3,right,1.0,False,duration,4,0.66,2.304593711,2.265619993,0,explicit,True,3.0,duration_4,3,high,duration_high,0
P37,71,TLD,3,left,1.0,False,duration,3,0.54,1.893968967,5.512290955,1,explicit,True,3.0,duration_3,2,low,duration_low,1
P37,72,TLD,3,right,1.0,False,duration,6,0.9,3.125843199,3.328548908,1,explicit,True,2.0,duration_6,5,high,duration_high,0
P39,49,TLD,2,left,0.0,True,duration,2,0.42,1.483344223,9.83048296,0,explicit,True,,duration_2,1,low,duration_low,1
P39,50,TLD,2,right,1.0,True,duration,5,0.78,2.715218455,0.1829080582,0,explicit,True,,duration_5,4,high,duration_high,0
P39,51,TLD,2,left,1.0,True,duration,3,0.54,1.893968967,3.963072062,1,explicit,True,,duration_3,2,low,duration_low,1
P39,52,TLD,2,left,0.0,True,duration,1,0.3,1.07271948,0.8819630146,0,explicit,True,,duration_1,0,low,duration_low,1
P39,53,TLD,2,right,1.0,True,duration,6,0.9,3.125843199,6.3467381,0,explicit,True,,duration_6,5,high,duration_high,0
P39,54,TLD,2,right,0.0,True,duration,4,0.66,2.304593711,1.09829998,0,explicit,True,,duration_4,3,high,duration_high,0
P39,55,TLD,2,right,0.0,True,duration,6,0.9,3.125843199,1.317288876,0,explicit,True,2.0,duration_6,5,high,duration_high,0
P39,56,TLD,2,left,1.0,True,duration,3,0.54,1.893968967,1.365600109,0,explicit,True,3.0,duration_3,2,low,duration_low,1
P39,57,TLD,2,left,0.0,True,duration,2,0.42,1.483344223,57.11179399,1,explicit,False,2.0,duration_2,1,low,duration_low,1
P39,58,TLD,2,right,1.0,True,duration,4,0.66,2.304593711,1.697539091,1,explicit,True,1.0,duration_4,3,high,duration_high,0
P39,59,TLD,2,left,1.0,True,duration,1,0.3,1.07271948,0.8646199703,1,explicit,True,2.0,duration_1,0,low,duration_low,1
P39,60,TLD,2,right,1.0,True,duration,5,0.78,2.715218455,1.197479963,1,explicit,True,1.0,duration_5,4,high,duration_high,0
P39,61,TLD,2,left,1.0,True,duration,1,0.3,1.07271948,0.467413187,1,explicit,True,2.0,duration_1,0,low,duration_low,1
P39,62,TLD,2,right,1.0,True,duration,4,0.66,2.304593711,1.04977107,1,explicit,True,3.0,duration_4,3,high,duration_high,0
P39,63,TLD,2,right,0.0,True,duration,6,0.9,3.125843199,0.4316329956,0,explicit,True,3.0,duration_6,5,high,duration_high,0
P39,64,TLD,2,left,1.0,True,duration,3,0.54,1.893968967,1.031707048,1,explicit,True,4.0,duration_3,2,low,duration_low,1
P39,65,TLD,2,right,1.0,True,duration,5,0.78,2.715218455,1.381720066,1,explicit,True,4.0,duration_5,4,high,duration_high,0
P39,66,TLD,2,left,1.0,True,duration,2,0.42,1.483344223,0.6153440475,1,explicit,True,3.0,duration_2,1,low,duration_low,1
P39,67,TLD,2,left,0.0,True,duration,3,0.54,1.893968967,0.531701088,0,explicit,True,3.0,duration_3,2,low,duration_low,1
P39,68,TLD,2,right,1.0,True,duration,6,0.9,3.125843199,1.883924961,0,explicit,True,3.0,duration_6,5,high,duration_high,0
P39,69,TLD,2,left,1.0,True,duration,2,0.42,1.483344223,2.981477976,0,explicit,True,3.0,duration_2,1,low,duration_low,1
P39,70,TLD,2,right,1.0,True,duration,5,0.78,2.715218455,2.049253941,0,explicit,True,3.0,duration_5,4,high,duration_high,0
P39,71,TLD,2,right,0.0,True,duration,4,0.66,2.304593711,1.349485159,1,explicit,True,3.0,duration_4,3,high,duration_high,0
P39,72,TLD,2,left,1.0,True,duration,1,0.3,1.07271948,1.981254101,1,explicit,True,3.0,duration_1,0,low,duration_low,1
P41,49,TLD,4,right,0.0,False,pitch,4,0.66,2.304593711,11.96477604,1,explicit,True,,pitch_4,9,high,pitch_high,2
P41,50,TLD,4,left,1.0,False,pitch,1,0.3,1.07271948,1.46458292,1,explicit,True,,pitch_1,6,low,pitch_low,3
P41,51,TLD,4,right,1.0,False,pitch,6,0.9,3.125843199,3.54827404,1,explicit,True,,pitch_6,11,high,pitch_high,2
P41,52,TLD,4,right,0.0,False,pitch,5,0.78,2.715218455,2.063725948,0,explicit,True,,pitch_5,10,high,pitch_high,2
P41,53,TLD,4,left,1.0,False,pitch,2,0.42,1.483344223,1.982138157,1,explicit,True,,pitch_2,7,low,pitch_low,3
P41,54,TLD,4,left,0.0,False,pitch,3,0.54,1.893968967,16.02459598,0,explicit,True,,pitch_3,8,low,pitch_low,3
P41,55,TLD,4,right,1.0,False,pitch,6,0.9,3.125843199,2.895345211,1,explicit,True,2.0,pitch_6,11,high,pitch_high,2
P41,56,TLD,4,left,1.0,False,pitch,3,0.54,1.893968967,3.766135931,1,explicit,True,3.0,pitch_3,8,low,pitch_low,3
P41,57,TLD,4,right,1.0,False,pitch,4,0.66,2.304593711,2.131267071,1,explicit,True,2.0,pitch_4,9,high,pitch_high,2
P41,58,TLD,4,left,1.0,False,pitch,2,0.42,1.483344223,6.747727156,0,explicit,True,2.0,pitch_2,7,low,pitch_low,3
P41,59,TLD,4,left,0.0,False,pitch,1,0.3,1.07271948,4.097507,0,explicit,True,3.0,pitch_1,6,low,pitch_low,3
P41,60,TLD,4,right,1.0,False,pitch,5,0.78,2.715218455,5.747642994,1,explicit,True,3.0,pitch_5,10,high,pitch_high,2
P41,61,TLD,4,right,0.0,False,pitch,5,0.78,2.715218455,1.580741882,0,explicit,True,4.0,pitch_5,10,high,pitch_high,2
P41,62,TLD,4,left,1.0,False,pitch,2,0.42,1.483344223,3.629550934,1,explicit,True,3.0,pitch_2,7,low,pitch_low,3
P41,63,TLD,4,left,0.0,False,pitch,1,0.3,1.07271948,1.781857967,0,explicit,True,3.0,pitch_1,6,low,pitch_low,3
P41,64,TLD,4,right,1.0,False,pitch,4,0.66,2.304593711,1.863545895,1,explicit,True,2.0,pitch_4,9,high,pitch_high,2
P41,65,TLD,4,left,1.0,False,pitch,3,0.54,1.893968967,7.296195984,1,explicit,True,2.0,pitch_3,8,low,pitch_low,3
P41,66,TLD,4,right,1.0,False,pitch,6,0.9,3.125843199,3.999059916,1,explicit,True,2.0,pitch_6,11,high,pitch_high,2
P41,67,TLD,4,left,1.0,False,pitch,2,0.42,1.483344223,3.631288052,1,explicit,True,2.0,pitch_2,7,low,pitch_low,3
P41,68,TLD,4,right,1.0,False,pitch,5,0.78,2.715218455,1.447884798,1,explicit,True,3.0,pitch_5,10,high,pitch_high,2
P41,69,TLD,4,left,1.0,False,pitch,3,0.54,1.893968967,1.931716204,1,explicit,True,3.0,pitch_3,8,low,pitch_low,3
P41,70,TLD,4,left,0.0,False,pitch,1,0.3,1.07271948,1.847243071,0,explicit,True,4.0,pitch_1,6,low,pitch_low,3
P41,71,TLD,4,right,1.0,False,pitch,6,0.9,3.125843199,1.080528021,1,explicit,True,4.0,pitch_6,11,high,pitch_high,2
P41,72,TLD,4,right,0.0,False,pitch,4,0.66,2.304593711,1.065030098,0,explicit,True,4.0,pitch_4,9,high,pitch_high,2
P42,49,TLD,5,right,0.0,False,pitch,5,0.78,2.715218455,12.6765132,1,explicit,True,,pitch_5,10,high,pitch_high,2
P42,50,TLD,5,left,1.0,False,pitch,2,0.42,1.483344223,2.314352036,1,explicit,True,,pitch_2,7,low,pitch_low,3
P42,51,TLD,5,left,0.0,False,pitch,1,0.3,1.07271948,3.596636057,1,explicit,True,,pitch_1,6,low,pitch_low,3
P42,52,TLD,5,right,1.0,False,pitch,4,0.66,2.304593711,1.950508833,1,explicit,True,,pitch_4,9,high,pitch_high,2
P42,53,TLD,5,left,1.0,False,pitch,3,0.54,1.893968967,2.098316908,1,explicit,True,,pitch_3,8,low,pitch_low,3
P42,54,TLD,5,right,1.0,False,pitch,6,0.9,3.125843199,2.516426086,1,explicit,True,,pitch_6,11,high,pitch_high,2
P42,55,TLD,5,left,1.0,False,pitch,1,0.3,1.07271948,1.430958033,1,explicit,True,2.0,pitch_1,6,low,pitch_low,3
P42,56,TLD,5,right,1.0,False,pitch,4,0.66,2.304593711,1.264572144,1,explicit,True,3.0,pitch_4,9,high,pitch_high,2
P42,57,TLD,5,right,0.0,False,pitch,5,0.78,2.715218455,1.697477102,0,explicit,True,3.0,pitch_5,10,high,pitch_high,2
P42,58,TLD,5,left,1.0,False,pitch,3,0.54,1.893968967,1.549354076,1,explicit,True,4.0,pitch_3,8,low,pitch_low,3
P42,59,TLD,5,left,0.0,False,pitch,2,0.42,1.483344223,1.497641087,1,explicit,True,4.0,pitch_2,7,low,pitch_low,3
P42,60,TLD,5,right,1.0,False,pitch,6,0.9,3.125843199,1.700073004,1,explicit,True,3.0,pitch_6,11,high,pitch_high,2
P42,61,TLD,5,left,1.0,False,pitch,3,0.54,1.893968967,1.298162937,1,explicit,True,3.0,pitch_3,8,low,pitch_low,3
P42,62,TLD,5,right,1.0,False,pitch,6,0.9,3.125843199,1.215991974,1,explicit,True,2.0,pitch_6,11,high,pitch_high,2
P42,63,TLD,5,left,1.0,False,pitch,2,0.42,1.483344223,0.9654109478,1,explicit,True,2.0,pitch_2,7,low,pitch_low,3
P42,64,TLD,5,right,1.0,False,pitch,5,0.78,2.715218455,1.098788977,1,explicit,True,3.0,pitch_5,10,high,pitch_high,2
P42,65,TLD,5,right,0.0,False,pitch,4,0.66,2.304593711,1.446352959,0,explicit,True,3.0,pitch_4,9,high,pitch_high,2
P42,66,TLD,5,left,1.0,False,pitch,1,0.3,1.07271948,1.582017183,0,explicit,True,4.0,pitch_1,6,low,pitch_low,3
P42,67,TLD,5,left,0.0,False,pitch,1,0.3,1.07271948,2.130666971,1,explicit,True,4.0,pitch_1,6,low,pitch_low,3
P42,68,TLD,5,right,1.0,False,pitch,4,0.66,2.304593711,1.247770071,1,explicit,True,3.0,pitch_4,9,high,pitch_high,2
P42,69,TLD,5,right,0.0,False,pitch,6,0.9,3.125843199,1.415103197,0,explicit,True,3.0,pitch_6,11,high,pitch_high,2
P42,70,TLD,5,left,1.0,False,pitch,3,0.54,1.893968967,1.316150904,0,explicit,True,2.0,pitch_3,8,low,pitch_low,3
P42,71,TLD,5,right,1.0,False,pitch,5,0.78,2.715218455,1.597792864,1,explicit,True,2.0,pitch_5,10,high,pitch_high,2
P42,72,TLD,5,left,1.0,False,pitch,2,0.42,1.483344223,1.430768967,1,explicit,True,2.0,pitch_2,7,low,pitch_low,3
P44,49,TLD,6,right,0.0,False,duration,6,0.9,3.125843199,3.934947968,0,explicit,True,,duration_6,5,high,duration_high,0
P44,50,TLD,6,left,1.0,False,duration,3,0.54,1.893968967,1.682813883,0,explicit,True,,duration_3,2,low,duration_low,1
P44,51,TLD,6,left,0.0,False,duration,2,0.42,1.483344223,3.13298583,0,explicit,True,,duration_2,1,low,duration_low,1
P44,52,TLD,6,right,1.0,False,duration,4,0.66,2.304593711,1.297951937,1,explicit,True,,duration_4,3,high,duration_high,0
P44,53,TLD,6,left,1.0,False,duration,1,0.3,1.07271948,0.8317399025,1,explicit,True,,duration_1,0,low,duration_low,1
P44,54,TLD,6,right,1.0,False,duration,5,0.78,2.715218455,1.131357193,1,explicit,True,,duration_5,4,high,duration_high,0
P44,55,TLD,6,left,1.0,False,duration,1,0.3,1.07271948,1.06657505,1,explicit,True,2.0,duration_1,0,low,duration_low,1
P44,56,TLD,6,right,1.0,False,duration,4,0.66,2.304593711,1.114551067,1,explicit,True,3.0,duration_4,3,high,duration_high,0
P44,57,TLD,6,right,0.0,False,duration,5,0.78,2.715218455,1.614712,0,explicit,True,3.0,duration_5,4,high,duration_high,0
P44,58,TLD,6,left,1.0,False,duration,3,0.54,1.893968967,1.014515162,1,explicit,True,4.0,duration_3,2,low,duration_low,1
P44,59,TLD,6,left,0.0,False,duration,2,0.42,1.483344223,0.5328490734,0,explicit,True,4.0,duration_2,1,low,duration_low,1
P44,60,TLD,6,right,1.0,False,duration,6,0.9,3.125843199,1.496500969,0,explicit,True,3.0,duration_6,5,high,duration_high,0
P44,61,TLD,6,right,0.0,False,duration,4,0.66,2.304593711,2.765019894,0,explicit,True,3.0,duration_4,3,high,duration_high,0
P44,62,TLD,6,left,1.0,False,duration,1,0.3,1.07271948,0.5967328548,1,explicit,True,2.0,duration_1,0,low,duration_low,1
P44,63,TLD,6,right,1.0,False,duration,6,0.9,3.125843199,1.681652069,1,explicit,True,2.0,duration_6,5,high,duration_high,0
P44,64,TLD,6,right,0.0,False,duration,5,0.78,2.715218455,1.546230078,1,explicit,True,2.0,duration_5,4,high,duration_high,0
P44,65,TLD,6,left,1.0,False,duration,2,0.42,1.483344223,0.7664439678,1,explicit,True,2.0,duration_2,1,low,duration_low,1
P44,66,TLD,6,left,0.0,False,duration,3,0.54,1.893968967,0.8815350533,1,explicit,True,3.0,duration_3,2,low,duration_low,1
P44,67,TLD,6,left,0.0,False,duration,3,0.54,1.893968967,1.39851284,0,explicit,True,2.0,duration_3,2,low,duration_low,1
P44,68,TLD,6,right,1.0,False,duration,6,0.9,3.125843199,0.6169610024,0,explicit,True,3.0,duration_6,5,high,duration_high,0
P44,69,TLD,6,left,1.0,False,duration,2,0.42,1.483344223,1.43223691,0,explicit,True,2.0,duration_2,1,low,duration_low,1
P44,70,TLD,6,right,1.0,False,duration,5,0.78,2.715218455,2.366696119,0,explicit,True,1.0,duration_5,4,high,duration_high,0
P44,71,TLD,6,right,0.0,False,duration,4,0.66,2.304593711,1.097754955,1,explicit,True,2.0,duration_4,3,high,duration_high,0
P44,72,TLD,6,left,1.0,False,duration,1,0.3,1.07271948,3.166514158,0,explicit,True,2.0,duration_1,0,low,duration_low,1
P45,49,TLD,3,left,0.0,False,duration,3,0.54,1.893968967,4.179135799,1,explicit,True,,duration_3,2,low,duration_low,1
P45,50,TLD,3,right,1.0,False,duration,6,0.9,3.125843199,2.033320189,1,explicit,True,,duration_6,5,high,duration_high,0
P45,51,TLD,3,left,1.0,False,duration,2,0.42,1.483344223,2.34623003,1,explicit,True,,duration_2,1,low,duration_low,1
P45,52,TLD,3,right,1.0,False,duration,5,0.78,2.715218455,0.8983371258,1,explicit,True,,duration_5,4,high,duration_high,0
P45,53,TLD,3,right,0.0,False,duration,4,0.66,2.304593711,0.8975980282,0,explicit,True,,duration_4,3,high,duration_high,0
P45,54,TLD,3,left,1.0,False,duration,1,0.3,1.07271948,1.482932091,1,explicit,True,,duration_1,0,low,duration_low,1
P45,55,TLD,3,left,0.0,False,duration,2,0.42,1.483344223,1.99911499,0,explicit,True,3.0,duration_2,1,low,duration_low,1
P45,56,TLD,3,right,1.0,False,duration,5,0.78,2.715218455,2.466380119,1,explicit,True,3.0,duration_5,4,high,duration_high,0
P45,57,TLD,3,left,1.0,False,duration,3,0.54,1.893968967,1.815430164,1,explicit,True,3.0,duration_3,2,low,duration_low,1
P45,58,TLD,3,left,0.0,False,duration,1,0.3,1.07271948,2.782277822,0,explicit,True,2.0,duration_1,0,low,duration_low,1
P45,59,TLD,3,right,1.0,False,duration,6,0.9,3.125843199,3.364415884,0,explicit,True,2.0,duration_6,5,high,duration_high,0
P45,60,TLD,3,right,0.0,False,duration,4,0.66,2.304593711,2.562850952,1,explicit,True,3.0,duration_4,3,high,duration_high,0
P45,61,TLD,3,right,0.0,False,duration,6,0.9,3.125843199,1.549041986,0,explicit,True,2.0,duration_6,5,high,duration_high,0
P45,62,TLD,3,left,1.0,False,duration,3,0.54,1.893968967,1.264036179,1,explicit,True,3.0,duration_3,2,low,duration_low,1
P45,63,TLD,3,left,0.0,False,duration,2,0.42,1.483344223,1.564105988,1,explicit,True,2.0,duration_2,1,low,duration_low,1
P45,64,TLD,3,right,1.0,False,duration,4,0.66,2.304593711,1.497261047,0,explicit,True,1.0,duration_4,3,high,duration_high,0
P45,65,TLD,3,left,1.0,False,duration,1,0.3,1.07271948,2.414740086,1,explicit,True,2.0,duration_1,0,low,duration_low,1
P45,66,TLD,3,right,1.0,False,duration,5,0.78,2.715218455,2.247463942,0,explicit,True,1.0,duration_5,4,high,duration_high,0
P45,67,TLD,3,right,0.0,False,duration,5,0.78,2.715218455,3.215692997,1,explicit,True,2.0,duration_5,4,high,duration_high,0
P45,68,TLD,3,left,1.0,False,duration,2,0.42,1.483344223,2.731631041,0,explicit,True,3.0,duration_2,1,low,duration_low,1
P45,69,TLD,3,left,0.0,False,duration,1,0.3,1.07271948,1.831288099,0,explicit,True,3.0,duration_1,0,low,duration_low,1
P45,70,TLD,3,right,1.0,False,duration,4,0.66,2.304593711,1.164328098,0,explicit,True,3.0,duration_4,3,high,duration_high,0
P45,71,TLD,3,left,1.0,False,duration,3,0.54,1.893968967,1.150316,0,explicit,True,3.0,duration_3,2,low,duration_low,1
P45,72,TLD,3,right,1.0,False,duration,6,0.9,3.125843199,1.066105843,1,explicit,True,2.0,duration_6,5,high,duration_high,0
P46,49,TLD,3,left,0.0,False,pitch,3,0.54,1.893968967,1.647203922,1,explicit,True,,pitch_3,8,low,pitch_low,3
P46,50,TLD,3,right,1.0,False,pitch,6,0.9,3.125843199,1.297553062,1,explicit,True,,pitch_6,11,high,pitch_high,2
P46,51,TLD,3,left,1.0,False,pitch,2,0.42,1.483344223,1.68001008,1,explicit,True,,pitch_2,7,low,pitch_low,3
P46,52,TLD,3,right,1.0,False,pitch,5,0.78,2.715218455,1.931738853,1,explicit,True,,pitch_5,10,high,pitch_high,2
P46,53,TLD,3,right,0.0,False,pitch,4,0.66,2.304593711,0.4966108799,0,explicit,True,,pitch_4,9,high,pitch_high,2
P46,54,TLD,3,left,1.0,False,pitch,1,0.3,1.07271948,1.36598897,1,explicit,True,,pitch_1,6,low,pitch_low,3
P46,55,TLD,3,left,0.0,False,pitch,2,0.42,1.483344223,1.048346996,0,explicit,True,3.0,pitch_2,7,low,pitch_low,3
P46,56,TLD,3,right,1.0,False,pitch,5,0.78,2.715218455,0.4820611477,1,explicit,True,3.0,pitch_5,10,high,pitch_high,2
P46,57,TLD,3,left,1.0,False,pitch,3,0.54,1.893968967,3.697552919,1,explicit,True,3.0,pitch_3,8,low,pitch_low,3
P46,58,TLD,3,left,0.0,False,pitch,1,0.3,1.07271948,0.9820590019,0,explicit,True,2.0,pitch_1,6,low,pitch_low,3
P46,59,TLD,3,right,1.0,False,pitch,6,0.9,3.125843199,1.314453125,1,explicit,True,2.0,pitch_6,11,high,pitch_high,2
P46,60,TLD,3,right,0.0,False,pitch,4,0.66,2.304593711,1.498315096,0,explicit,True,3.0,pitch_4,9,high,pitch_high,2
P46,61,TLD,3,right,0.0,False,pitch,6,0.9,3.125843199,1.864398003,1,explicit,True,2.0,pitch_6,11,high,pitch_high,2
P46,62,TLD,3,left,1.0,False,pitch,3,0.54,1.893968967,1.065178156,1,explicit,True,3.0,pitch_3,8,low,pitch_low,3
P46,63,TLD,3,left,0.0,False,pitch,2,0.42,1.483344223,0.8492980003,0,explicit,True,2.0,pitch_2,7,low,pitch_low,3
P46,64,TLD,3,right,1.0,False,pitch,4,0.66,2.304593711,2.38064909,0,explicit,True,1.0,pitch_4,9,high,pitch_high,2
P46,65,TLD,3,left,1.0,False,pitch,1,0.3,1.07271948,3.063351154,0,explicit,True,2.0,pitch_1,6,low,pitch_low,3
P46,66,TLD,3,right,1.0,False,pitch,5,0.78,2.715218455,1.945863962,1,explicit,True,1.0,pitch_5,10,high,pitch_high,2
P46,67,TLD,3,right,0.0,False,pitch,5,0.78,2.715218455,0.8809781075,0,explicit,True,2.0,pitch_5,10,high,pitch_high,2
P46,68,TLD,3,left,1.0,False,pitch,2,0.42,1.483344223,1.365082979,1,explicit,True,3.0,pitch_2,7,low,pitch_low,3
P46,69,TLD,3,left,0.0,False,pitch,1,0.3,1.07271948,3.813332081,0,explicit,True,3.0,pitch_1,6,low,pitch_low,3
P46,70,TLD,3,right,1.0,False,pitch,4,0.66,2.304593711,0.7985720634,1,explicit,True,3.0,pitch_4,9,high,pitch_high,2
P46,71,TLD,3,left,1.0,False,pitch,3,0.54,1.893968967,1.06289196,0,explicit,True,3.0,pitch_3,8,low,pitch_low,3
P46,72,TLD,3,right,1.0,False,pitch,6,0.9,3.125843199,1.198530197,1,explicit,True,2.0,pitch_6,11,high,pitch_high,2
P47,49,TLD,4,right,0.0,False,duration,4,0.66,2.304593711,3.914021015,1,explicit,True,,duration_4,3,high,duration_high,0
P47,50,TLD,4,left,1.0,False,duration,1,0.3,1.07271948,1.897829056,1,explicit,True,,duration_1,0,low,duration_low,1
P47,51,TLD,4,right,1.0,False,duration,6,0.9,3.125843199,1.449246883,1,explicit,True,,duration_6,5,high,duration_high,0
P47,52,TLD,4,right,0.0,False,duration,5,0.78,2.715218455,1.232321024,0,explicit,True,,duration_5,4,high,duration_high,0
P47,53,TLD,4,left,1.0,False,duration,2,0.42,1.483344223,1.413646936,0,explicit,True,,duration_2,1,low,duration_low,1
P47,54,TLD,4,left,0.0,False,duration,3,0.54,1.893968967,1.364243031,0,explicit,True,,duration_3,2,low,duration_low,1
P47,55,TLD,4,right,1.0,False,duration,6,0.9,3.125843199,0.6487660408,0,explicit,True,2.0,duration_6,5,high,duration_high,0
P47,56,TLD,4,left,1.0,False,duration,3,0.54,1.893968967,1.73101306,0,explicit,True,3.0,duration_3,2,low,duration_low,1
P47,57,TLD,4,right,1.0,False,duration,4,0.66,2.304593711,2.313973904,1,explicit,True,2.0,duration_4,3,high,duration_high,0
P47,58,TLD,4,left,1.0,False,duration,2,0.42,1.483344223,2.048357964,0,explicit,True,2.0,duration_2,1,low,duration_low,1
P47,59,TLD,4,left,0.0,False,duration,1,0.3,1.07271948,0.9988918304,0,explicit,True,3.0,duration_1,0,low,duration_low,1
P47,60,TLD,4,right,1.0,False,duration,5,0.78,2.715218455,0.5653078556,0,explicit,True,3.0,duration_5,4,high,duration_high,0
P47,61,TLD,4,right,0.0,False,duration,5,0.78,2.715218455,2.315969944,1,explicit,True,4.0,duration_5,4,high,duration_high,0
P47,62,TLD,4,left,1.0,False,duration,2,0.42,1.483344223,1.381922007,0,explicit,True,3.0,duration_2,1,low,duration_low,1
P47,63,TLD,4,left,0.0,False,duration,1,0.3,1.07271948,1.314412117,0,explicit,True,3.0,duration_1,0,low,duration_low,1
P47,64,TLD,4,right,1.0,False,duration,4,0.66,2.304593711,0.6988430023,1,explicit,True,2.0,duration_4,3,high,duration_high,0
P47,65,TLD,4,left,1.0,False,duration,3,0.54,1.893968967,1.300008059,0,explicit,True,2.0,duration_3,2,low,duration_low,1
P47,66,TLD,4,right,1.0,False,duration,6,0.9,3.125843199,1.033051014,1,explicit,True,2.0,duration_6,5,high,duration_high,0
P47,67,TLD,4,left,1.0,False,duration,2,0.42,1.483344223,1.448563099,0,explicit,True,2.0,duration_2,1,low,duration_low,1
P47,68,TLD,4,right,1.0,False,duration,5,0.78,2.715218455,0.7805259228,1,explicit,True,3.0,duration_5,4,high,duration_high,0
P47,69,TLD,4,left,1.0,False,duration,3,0.54,1.893968967,1.366376162,1,explicit,True,3.0,duration_3,2,low,duration_low,1
P47,70,TLD,4,left,0.0,False,duration,1,0.3,1.07271948,0.965157032,0,explicit,True,4.0,duration_1,0,low,duration_low,1
P47,71,TLD,4,right,1.0,False,duration,6,0.9,3.125843199,0.5655481815,0,explicit,True,4.0,duration_6,5,high,duration_high,0
P47,72,TLD,4,right,0.0,False,duration,4,0.66,2.304593711,1.798247099,1,explicit,True,4.0,duration_4,3,high,duration_high,0
P50,49,TLD,6,right,0.0,True,pitch,6,0.9,3.125843199,16.24614692,0,explicit,True,,pitch_6,11,high,pitch_high,2
P50,50,TLD,6,left,1.0,True,pitch,3,0.54,1.893968967,6.764000893,1,explicit,True,,pitch_3,8,low,pitch_low,3
P50,51,TLD,6,left,0.0,True,pitch,2,0.42,1.483344223,2.848966122,0,explicit,True,,pitch_2,7,low,pitch_low,3
P50,52,TLD,6,right,1.0,True,pitch,4,0.66,2.304593711,2.714232922,1,explicit,True,,pitch_4,9,high,pitch_high,2
P50,53,TLD,6,left,1.0,True,pitch,1,0.3,1.07271948,3.08277607,1,explicit,True,,pitch_1,6,low,pitch_low,3
P50,54,TLD,6,right,1.0,True,pitch,5,0.78,2.715218455,2.664749146,1,explicit,True,,pitch_5,10,high,pitch_high,2
P50,55,TLD,6,left,1.0,True,pitch,1,0.3,1.07271948,4.128733158,1,explicit,True,2.0,pitch_1,6,low,pitch_low,3
P50,56,TLD,6,right,1.0,True,pitch,4,0.66,2.304593711,4.215734005,1,explicit,True,3.0,pitch_4,9,high,pitch_high,2
P50,57,TLD,6,right,0.0,True,pitch,5,0.78,2.715218455,3.764568806,1,explicit,True,3.0,pitch_5,10,high,pitch_high,2
P50,58,TLD,6,left,1.0,True,pitch,3,0.54,1.893968967,4.263087034,1,explicit,True,4.0,pitch_3,8,low,pitch_low,3
P50,59,TLD,6,left,0.0,True,pitch,2,0.42,1.483344223,5.394366026,0,explicit,True,4.0,pitch_2,7,low,pitch_low,3
P50,60,TLD,6,right,1.0,True,pitch,6,0.9,3.125843199,2.615759134,1,explicit,True,3.0,pitch_6,11,high,pitch_high,2
P50,61,TLD,6,right,0.0,True,pitch,4,0.66,2.304593711,2.147876024,0,explicit,True,3.0,pitch_4,9,high,pitch_high,2
P50,62,TLD,6,left,1.0,True,pitch,1,0.3,1.07271948,2.263723135,1,explicit,True,2.0,pitch_1,6,low,pitch_low,3
P50,63,TLD,6,right,1.0,True,pitch,6,0.9,3.125843199,1.831725121,0,explicit,True,2.0,pitch_6,11,high,pitch_high,2
P50,64,TLD,6,right,0.0,True,pitch,5,0.78,2.715218455,2.664142132,0,explicit,True,2.0,pitch_5,10,high,pitch_high,2
P50,65,TLD,6,left,1.0,True,pitch,2,0.42,1.483344223,0.1487448215,0,explicit,True,2.0,pitch_2,7,low,pitch_low,3
P50,66,TLD,6,left,0.0,True,pitch,3,0.54,1.893968967,1.847182035,0,explicit,True,3.0,pitch_3,8,low,pitch_low,3
P50,67,TLD,6,left,0.0,True,pitch,3,0.54,1.893968967,2.381474018,0,explicit,True,2.0,pitch_3,8,low,pitch_low,3
P50,68,TLD,6,right,1.0,True,pitch,6,0.9,3.125843199,1.530531883,1,explicit,True,3.0,pitch_6,11,high,pitch_high,2
P50,69,TLD,6,left,1.0,True,pitch,2,0.42,1.483344223,2.165761948,0,explicit,True,2.0,pitch_2,7,low,pitch_low,3
P50,70,TLD,6,right,1.0,True,pitch,5,0.78,2.715218455,0.92969203,1,explicit,True,1.0,pitch_5,10,high,pitch_high,2
P50,71,TLD,6,right,0.0,True,pitch,4,0.66,2.304593711,0.2146239281,1,explicit,True,2.0,pitch_4,9,high,pitch_high,2
P50,72,TLD,6,left,1.0,True,pitch,1,0.3,1.07271948,0.1487381458,0,explicit,True,2.0,pitch_1,6,low,pitch_low,3
P55,49,TLD,2,left,0.0,True,pitch,2,0.42,1.483344223,45.13606,1,explicit,False,,pitch_2,7,low,pitch_low,3
P55,50,TLD,2,right,1.0,True,pitch,5,0.78,2.715218455,3.198340178,1,explicit,True,,pitch_5,10,high,pitch_high,2
P55,51,TLD,2,left,1.0,True,pitch,3,0.54,1.893968967,3.91166091,1,explicit,True,,pitch_3,8,low,pitch_low,3
P55,52,TLD,2,left,0.0,True,pitch,1,0.3,1.07271948,1.550685883,1,explicit,True,,pitch_1,6,low,pitch_low,3
P55,53,TLD,2,right,1.0,True,pitch,6,0.9,3.125843199,0.54885602,1,explicit,True,,pitch_6,11,high,pitch_high,2
P55,54,TLD,2,right,0.0,True,pitch,4,0.66,2.304593711,0.9329080582,0,explicit,True,,pitch_4,9,high,pitch_high,2
P55,55,TLD,2,right,0.0,True,pitch,6,0.9,3.125843199,2.164112091,0,explicit,True,2.0,pitch_6,11,high,pitch_high,2
P55,56,TLD,2,left,1.0,True,pitch,3,0.54,1.893968967,2.683304071,0,explicit,True,3.0,pitch_3,8,low,pitch_low,3
P55,57,TLD,2,left,0.0,True,pitch,2,0.42,1.483344223,0.9165599346,0,explicit,True,2.0,pitch_2,7,low,pitch_low,3
P55,58,TLD,2,right,1.0,True,pitch,4,0.66,2.304593711,9.578935146,0,explicit,True,1.0,pitch_4,9,high,pitch_high,2
P55,59,TLD,2,left,1.0,True,pitch,1,0.3,1.07271948,1.382270098,0,explicit,True,2.0,pitch_1,6,low,pitch_low,3
P55,60,TLD,2,right,1.0,True,pitch,5,0.78,2.715218455,1.863913059,1,explicit,True,1.0,pitch_5,10,high,pitch_high,2
P55,61,TLD,2,left,1.0,True,pitch,1,0.3,1.07271948,2.530379057,1,explicit,True,2.0,pitch_1,6,low,pitch_low,3
P55,62,TLD,2,right,1.0,True,pitch,4,0.66,2.304593711,5.465342999,0,explicit,True,3.0,pitch_4,9,high,pitch_high,2
P55,63,TLD,2,right,0.0,True,pitch,6,0.9,3.125843199,2.031965971,1,explicit,True,3.0,pitch_6,11,high,pitch_high,2
P55,64,TLD,2,left,1.0,True,pitch,3,0.54,1.893968967,0.9337730408,1,explicit,True,4.0,pitch_3,8,low,pitch_low,3
P55,65,TLD,2,right,1.0,True,pitch,5,0.78,2.715218455,0.5833470821,1,explicit,True,4.0,pitch_5,10,high,pitch_high,2
P55,66,TLD,2,left,1.0,True,pitch,2,0.42,1.483344223,0.03278708458,1,explicit,True,3.0,pitch_2,7,low,pitch_low,3
P55,67,TLD,2,left,0.0,True,pitch,3,0.54,1.893968967,5.146353006,0,explicit,True,3.0,pitch_3,8,low,pitch_low,3
P55,68,TLD,2,right,1.0,True,pitch,6,0.9,3.125843199,3.715432882,0,explicit,True,3.0,pitch_6,11,high,pitch_high,2
P55,69,TLD,2,left,1.0,True,pitch,2,0.42,1.483344223,2.330119133,0,explicit,True,3.0,pitch_2,7,low,pitch_low,3
P55,70,TLD,2,right,1.0,True,pitch,5,0.78,2.715218455,0.2651720047,0,explicit,True,3.0,pitch_5,10,high,pitch_high,2
P55,71,TLD,2,right,0.0,True,pitch,4,0.66,2.304593711,1.68285799,0,explicit,True,3.0,pitch_4,9,high,pitch_high,2
P55,72,TLD,2,left,1.0,True,pitch,1,0.3,1.07271948,0.9146869183,0,explicit,True,3.0,pitch_1,6,low,pitch_low,3
P60,49,TLD,4,right,0.0,True,pitch,4,0.66,2.304593711,4.187358141,0,explicit,True,,pitch_4,9,high,pitch_high,2
P60,50,TLD,4,left,1.0,True,pitch,1,0.3,1.07271948,7.714085102,1,explicit,True,,pitch_1,6,low,pitch_low,3
P60,51,TLD,4,right,1.0,True,pitch,6,0.9,3.125843199,2.714410067,1,explicit,True,,pitch_6,11,high,pitch_high,2
P60,52,TLD,4,right,0.0,True,pitch,5,0.78,2.715218455,3.196597099,1,explicit,True,,pitch_5,10,high,pitch_high,2
P60,53,TLD,4,left,1.0,True,pitch,2,0.42,1.483344223,5.814466,1,explicit,True,,pitch_2,7,low,pitch_low,3
P60,54,TLD,4,left,0.0,True,pitch,3,0.54,1.893968967,14.69508886,0,explicit,True,,pitch_3,8,low,pitch_low,3
P60,55,TLD,4,right,1.0,True,pitch,6,0.9,3.125843199,4.631226063,1,explicit,True,2.0,pitch_6,11,high,pitch_high,2
P60,56,TLD,4,left,1.0,True,pitch,3,0.54,1.893968967,4.894990921,1,explicit,True,3.0,pitch_3,8,low,pitch_low,3
P60,57,TLD,4,right,1.0,True,pitch,4,0.66,2.304593711,7.694163799,1,explicit,True,2.0,pitch_4,9,high,pitch_high,2
P60,58,TLD,4,left,1.0,True,pitch,2,0.42,1.483344223,11.01114798,1,explicit,True,2.0,pitch_2,7,low,pitch_low,3
P60,59,TLD,4,left,0.0,True,pitch,1,0.3,1.07271948,3.579861879,0,explicit,True,3.0,pitch_1,6,low,pitch_low,3
P60,60,TLD,4,right,1.0,True,pitch,5,0.78,2.715218455,1.514220953,1,explicit,True,3.0,pitch_5,10,high,pitch_high,2
P60,61,TLD,4,right,0.0,True,pitch,5,0.78,2.715218455,4.333019972,0,explicit,True,4.0,pitch_5,10,high,pitch_high,2
P60,62,TLD,4,left,1.0,True,pitch,2,0.42,1.483344223,6.464777946,1,explicit,True,3.0,pitch_2,7,low,pitch_low,3
P60,63,TLD,4,left,0.0,True,pitch,1,0.3,1.07271948,9.446586132,0,explicit,True,3.0,pitch_1,6,low,pitch_low,3
P60,64,TLD,4,right,1.0,True,pitch,4,0.66,2.304593711,9.045689106,1,explicit,True,2.0,pitch_4,9,high,pitch_high,2
P60,65,TLD,4,left,1.0,True,pitch,3,0.54,1.893968967,3.183304787,1,explicit,True,2.0,pitch_3,8,low,pitch_low,3
P60,66,TLD,4,right,1.0,True,pitch,6,0.9,3.125843199,4.897294998,1,explicit,True,2.0,pitch_6,11,high,pitch_high,2
P60,67,TLD,4,left,1.0,True,pitch,2,0.42,1.483344223,2.778938055,1,explicit,True,2.0,pitch_2,7,low,pitch_low,3
P60,68,TLD,4,right,1.0,True,pitch,5,0.78,2.715218455,2.133026838,1,explicit,True,3.0,pitch_5,10,high,pitch_high,2
P60,69,TLD,4,left,1.0,True,pitch,3,0.54,1.893968967,5.730182886,1,explicit,True,3.0,pitch_3,8,low,pitch_low,3
P60,70,TLD,4,left,0.0,True,pitch,1,0.3,1.07271948,5.83117795,0,explicit,True,4.0,pitch_1,6,low,pitch_low,3
P60,71,TLD,4,right,1.0,True,pitch,6,0.9,3.125843199,5.544931173,1,explicit,True,4.0,pitch_6,11,high,pitch_high,2
P60,72,TLD,4,right,0.0,True,pitch,4,0.66,2.304593711,4.829159975,0,explicit,True,4.0,pitch_4,9,high,pitch_high,2
P62,49,DLD,5,right,0.0,False,pitch,5,0.78,2.715218455,8.446136951,0,explicit,True,,pitch_5,10,high,pitch_high,2
P62,50,DLD,5,left,1.0,False,pitch,2,0.42,1.483344223,4.961061001,0,explicit,True,,pitch_2,7,low,pitch_low,3
P62,51,DLD,5,left,0.0,False,pitch,1,0.3,1.07271948,4.296125889,0,explicit,True,,pitch_1,6,low,pitch_low,3
P62,52,DLD,5,right,1.0,False,pitch,4,0.66,2.304593711,4.848687172,1,explicit,True,,pitch_4,9,high,pitch_high,2
P62,53,DLD,5,left,1.0,False,pitch,3,0.54,1.893968967,3.53052783,1,explicit,True,,pitch_3,8,low,pitch_low,3
P62,54,DLD,5,right,1.0,False,pitch,6,0.9,3.125843199,3.262511969,1,explicit,True,,pitch_6,11,high,pitch_high,2
P62,55,DLD,5,left,1.0,False,pitch,1,0.3,1.07271948,4.164330006,1,explicit,True,2.0,pitch_1,6,low,pitch_low,3
P62,56,DLD,5,right,1.0,False,pitch,4,0.66,2.304593711,2.731334925,1,explicit,True,3.0,pitch_4,9,high,pitch_high,2
P62,57,DLD,5,right,0.0,False,pitch,5,0.78,2.715218455,3.978959084,0,explicit,True,3.0,pitch_5,10,high,pitch_high,2
P62,58,DLD,5,left,1.0,False,pitch,3,0.54,1.893968967,3.864452839,1,explicit,True,4.0,pitch_3,8,low,pitch_low,3
P62,59,DLD,5,left,0.0,False,pitch,2,0.42,1.483344223,4.449285984,0,explicit,True,4.0,pitch_2,7,low,pitch_low,3
P62,60,DLD,5,right,1.0,False,pitch,6,0.9,3.125843199,3.797748089,1,explicit,True,3.0,pitch_6,11,high,pitch_high,2
P62,61,DLD,5,left,1.0,False,pitch,3,0.54,1.893968967,2.846938849,1,explicit,True,3.0,pitch_3,8,low,pitch_low,3
P62,62,DLD,5,right,1.0,False,pitch,6,0.9,3.125843199,4.682849884,1,explicit,True,2.0,pitch_6,11,high,pitch_high,2
P62,63,DLD,5,left,1.0,False,pitch,2,0.42,1.483344223,4.146777153,1,explicit,True,2.0,pitch_2,7,low,pitch_low,3
P62,64,DLD,5,right,1.0,False,pitch,5,0.78,2.715218455,2.846330166,1,explicit,True,3.0,pitch_5,10,high,pitch_high,2
P62,65,DLD,5,right,0.0,False,pitch,4,0.66,2.304593711,1.800103188,0,explicit,True,3.0,pitch_4,9,high,pitch_high,2
P62,66,DLD,5,left,1.0,False,pitch,1,0.3,1.07271948,4.146243095,1,explicit,True,4.0,pitch_1,6,low,pitch_low,3
P62,67,DLD,5,left,0.0,False,pitch,1,0.3,1.07271948,4.230023861,1,explicit,True,4.0,pitch_1,6,low,pitch_low,3
P62,68,DLD,5,right,1.0,False,pitch,4,0.66,2.304593711,3.365533113,1,explicit,True,3.0,pitch_4,9,high,pitch_high,2
P62,69,DLD,5,right,0.0,False,pitch,6,0.9,3.125843199,5.715284109,1,explicit,True,3.0,pitch_6,11,high,pitch_high,2
P62,70,DLD,5,left,1.0,False,pitch,3,0.54,1.893968967,2.498991966,1,explicit,True,2.0,pitch_3,8,low,pitch_low,3
P62,71,DLD,5,right,1.0,False,pitch,5,0.78,2.715218455,1.665289879,1,explicit,True,2.0,pitch_5,10,high,pitch_high,2
P62,72,DLD,5,left,1.0,False,pitch,2,0.42,1.483344223,0.9153101444,0,explicit,True,2.0,pitch_2,7,low,pitch_low,3
P63,49,TLD,1,left,0.0,False,duration,1,0.3,1.07271948,6.384320974,1,explicit,True,,duration_1,0,low,duration_low,1
P63,50,TLD,1,right,1.0,False,duration,4,0.66,2.304593711,4.347062826,1,explicit,True,,duration_4,3,high,duration_high,0
P63,51,TLD,1,right,0.0,False,duration,5,0.78,2.715218455,2.296041965,0,explicit,True,,duration_5,4,high,duration_high,0
P63,52,TLD,1,left,1.0,False,duration,3,0.54,1.893968967,4.897833109,1,explicit,True,,duration_3,2,low,duration_low,1
P63,53,TLD,1,left,0.0,False,duration,2,0.42,1.483344223,5.865047932,0,explicit,True,,duration_2,1,low,duration_low,1
P63,54,TLD,1,right,1.0,False,duration,6,0.9,3.125843199,1.931596041,0,explicit,True,,duration_6,5,high,duration_high,0
P63,55,TLD,1,right,0.0,False,duration,5,0.78,2.715218455,2.928722143,1,explicit,True,2.0,duration_5,4,high,duration_high,0
P63,56,TLD,1,left,1.0,False,duration,2,0.42,1.483344223,1.331608057,0,explicit,True,2.0,duration_2,1,low,duration_low,1
P63,57,TLD,1,left,0.0,False,duration,1,0.3,1.07271948,0.6485221386,0,explicit,True,2.0,duration_1,0,low,duration_low,1
P63,58,TLD,1,right,1.0,False,duration,4,0.66,2.304593711,2.414420128,1,explicit,True,2.0,duration_4,3,high,duration_high,0
P63,59,TLD,1,left,1.0,False,duration,3,0.54,1.893968967,0.8650009632,1,explicit,True,2.0,duration_3,2,low,duration_low,1
P63,60,TLD,1,right,1.0,False,duration,6,0.9,3.125843199,2.54694891,1,explicit,True,2.0,duration_6,5,high,duration_high,0
P63,61,TLD,1,right,0.0,False,duration,4,0.66,2.304593711,3.512712002,1,explicit,True,2.0,duration_4,3,high,duration_high,0
P63,62,TLD,1,left,1.0,False,duration,1,0.3,1.07271948,2.249063015,0,explicit,True,3.0,duration_1,0,low,duration_low,1
P63,63,TLD,1,right,1.0,False,duration,6,0.9,3.125843199,5.362573147,0,explicit,True,3.0,duration_6,5,high,duration_high,0
P63,64,TLD,1,right,0.0,False,duration,5,0.78,2.715218455,2.779216051,1,explicit,True,3.0,duration_5,4,high,duration_high,0
P63,65,TLD,1,left,1.0,False,duration,2,0.42,1.483344223,7.364058971,0,explicit,True,3.0,duration_2,1,low,duration_low,1
P63,66,TLD,1,left,0.0,False,duration,3,0.54,1.893968967,2.316557884,1,explicit,True,3.0,duration_3,2,low,duration_low,1
P63,67,TLD,1,right,1.0,False,duration,6,0.9,3.125843199,1.315221071,1,explicit,True,2.0,duration_6,5,high,duration_high,0
P63,68,TLD,1,left,1.0,False,duration,3,0.54,1.893968967,2.700361967,0,explicit,True,3.0,duration_3,2,low,duration_low,1
P63,69,TLD,1,right,1.0,False,duration,4,0.66,2.304593711,4.297713041,0,explicit,True,2.0,duration_4,3,high,duration_high,0
P63,70,TLD,1,left,1.0,False,duration,2,0.42,1.483344223,3.813364983,0,explicit,True,2.0,duration_2,1,low,duration_low,1
P63,71,TLD,1,left,0.0,False,duration,1,0.3,1.07271948,4.663271904,1,explicit,True,3.0,duration_1,0,low,duration_low,1
P63,72,TLD,1,right,1.0,False,duration,5,0.78,2.715218455,4.232570171,1,explicit,True,3.0,duration_5,4,high,duration_high,0
P64,49,TLD,5,right,0.0,False,duration,5,0.78,2.715218455,6.367443085,1,explicit,True,,duration_5,4,high,duration_high,0
P64,50,TLD,5,left,1.0,False,duration,2,0.42,1.483344223,4.181259155,1,explicit,True,,duration_2,1,low,duration_low,1
P64,51,TLD,5,left,0.0,False,duration,1,0.3,1.07271948,3.680860043,0,explicit,True,,duration_1,0,low,duration_low,1
P64,52,TLD,5,right,1.0,False,duration,4,0.66,2.304593711,2.333235979,1,explicit,True,,duration_4,3,high,duration_high,0
P64,53,TLD,5,left,1.0,False,duration,3,0.54,1.893968967,2.197025061,1,explicit,True,,duration_3,2,low,duration_low,1
P64,54,TLD,5,right,1.0,False,duration,6,0.9,3.125843199,3.130158901,1,explicit,True,,duration_6,5,high,duration_high,0
P64,55,TLD,5,left,1.0,False,duration,1,0.3,1.07271948,1.632673979,1,explicit,True,2.0,duration_1,0,low,duration_low,1
P64,56,TLD,5,right,1.0,False,duration,4,0.66,2.304593711,2.030693054,1,explicit,True,3.0,duration_4,3,high,duration_high,0
P64,57,TLD,5,right,0.0,False,duration,5,0.78,2.715218455,1.432833195,0,explicit,True,3.0,duration_5,4,high,duration_high,0
P64,58,TLD,5,left,1.0,False,duration,3,0.54,1.893968967,3.046855211,1,explicit,True,4.0,duration_3,2,low,duration_low,1
P64,59,TLD,5,left,0.0,False,duration,2,0.42,1.483344223,1.700247049,0,explicit,True,4.0,duration_2,1,low,duration_low,1
P64,60,TLD,5,right,1.0,False,duration,6,0.9,3.125843199,2.49763608,1,explicit,True,3.0,duration_6,5,high,duration_high,0
P64,61,TLD,5,left,1.0,False,duration,3,0.54,1.893968967,0.8497130871,1,explicit,True,3.0,duration_3,2,low,duration_low,1
P64,62,TLD,5,right,1.0,False,duration,6,0.9,3.125843199,1.581384897,1,explicit,True,2.0,duration_6,5,high,duration_high,0
P64,63,TLD,5,left,1.0,False,duration,2,0.42,1.483344223,0.9981989861,1,explicit,True,2.0,duration_2,1,low,duration_low,1
P64,64,TLD,5,right,1.0,False,duration,5,0.78,2.715218455,0.9132840633,1,explicit,True,3.0,duration_5,4,high,duration_high,0
P64,65,TLD,5,right,0.0,False,duration,4,0.66,2.304593711,0.4487249851,0,explicit,True,3.0,duration_4,3,high,duration_high,0
P64,66,TLD,5,left,1.0,False,duration,1,0.3,1.07271948,1.231066942,0,explicit,True,4.0,duration_1,0,low,duration_low,1
P64,67,TLD,5,left,0.0,False,duration,1,0.3,1.07271948,1.132019997,0,explicit,True,4.0,duration_1,0,low,duration_low,1
P64,68,TLD,5,right,1.0,False,duration,4,0.66,2.304593711,1.53333807,1,explicit,True,3.0,duration_4,3,high,duration_high,0
P64,69,TLD,5,right,0.0,False,duration,6,0.9,3.125843199,1.749006987,0,explicit,True,3.0,duration_6,5,high,duration_high,0
P64,70,TLD,5,left,1.0,False,duration,3,0.54,1.893968967,1.350013018,1,explicit,True,2.0,duration_3,2,low,duration_low,1
P64,71,TLD,5,right,1.0,False,duration,5,0.78,2.715218455,1.365304947,0,explicit,True,2.0,duration_5,4,high,duration_high,0
P64,72,TLD,5,left,1.0,False,duration,2,0.42,1.483344223,3.132711887,1,explicit,True,2.0,duration_2,1,low,duration_low,1
P65,49,DLD,1,left,0.0,False,pitch,1,0.3,1.07271948,8.616323948,1,explicit,True,,pitch_1,6,low,pitch_low,3
P65,50,DLD,1,right,1.0,False,pitch,4,0.66,2.304593711,5.530349016,1,explicit,True,,pitch_4,9,high,pitch_high,2
P65,51,DLD,1,right,0.0,False,pitch,5,0.78,2.715218455,5.266113997,0,explicit,True,,pitch_5,10,high,pitch_high,2
P65,52,DLD,1,left,1.0,False,pitch,3,0.54,1.893968967,1.165371895,1,explicit,True,,pitch_3,8,low,pitch_low,3
P65,53,DLD,1,left,0.0,False,pitch,2,0.42,1.483344223,5.494989872,1,explicit,True,,pitch_2,7,low,pitch_low,3
P65,54,DLD,1,right,1.0,False,pitch,6,0.9,3.125843199,3.997099876,1,explicit,True,,pitch_6,11,high,pitch_high,2
P65,55,DLD,1,right,0.0,False,pitch,5,0.78,2.715218455,4.948240042,1,explicit,True,2.0,pitch_5,10,high,pitch_high,2
P65,56,DLD,1,left,1.0,False,pitch,2,0.42,1.483344223,1.132763147,1,explicit,True,2.0,pitch_2,7,low,pitch_low,3
P65,57,DLD,1,left,0.0,False,pitch,1,0.3,1.07271948,1.067203045,1,explicit,True,2.0,pitch_1,6,low,pitch_low,3
P65,58,DLD,1,right,1.0,False,pitch,4,0.66,2.304593711,1.148452997,1,explicit,True,2.0,pitch_4,9,high,pitch_high,2
P65,59,DLD,1,left,1.0,False,pitch,3,0.54,1.893968967,1.315824986,0,explicit,True,2.0,pitch_3,8,low,pitch_low,3
P65,60,DLD,1,right,1.0,False,pitch,6,0.9,3.125843199,0.996984005,1,explicit,True,2.0,pitch_6,11,high,pitch_high,2
P65,61,DLD,1,right,0.0,False,pitch,4,0.66,2.304593711,1.465042114,0,explicit,True,2.0,pitch_4,9,high,pitch_high,2
P65,62,DLD,1,left,1.0,False,pitch,1,0.3,1.07271948,1.282429934,1,explicit,True,3.0,pitch_1,6,low,pitch_low,3
P65,63,DLD,1,right,1.0,False,pitch,6,0.9,3.125843199,1.298210144,1,explicit,True,3.0,pitch_6,11,high,pitch_high,2
P65,64,DLD,1,right,0.0,False,pitch,5,0.78,2.715218455,3.763504028,1,explicit,True,3.0,pitch_5,10,high,pitch_high,2
P65,65,DLD,1,left,1.0,False,pitch,2,0.42,1.483344223,1.015802145,1,explicit,True,3.0,pitch_2,7,low,pitch_low,3
P65,66,DLD,1,left,0.0,False,pitch,3,0.54,1.893968967,5.628375053,1,explicit,True,3.0,pitch_3,8,low,pitch_low,3
P65,67,DLD,1,right,1.0,False,pitch,6,0.9,3.125843199,1.065415859,1,explicit,True,2.0,pitch_6,11,high,pitch_high,2
P65,68,DLD,1,left,1.0,False,pitch,3,0.54,1.893968967,1.231765985,1,explicit,True,3.0,pitch_3,8,low,pitch_low,3
P65,69,DLD,1,right,1.0,False,pitch,4,0.66,2.304593711,1.75001812,1,explicit,True,2.0,pitch_4,9,high,pitch_high,2
P65,70,DLD,1,left,1.0,False,pitch,2,0.42,1.483344223,1.047717094,1,explicit,True,2.0,pitch_2,7,low,pitch_low,3
P65,71,DLD,1,left,0.0,False,pitch,1,0.3,1.07271948,0.7164189816,0,explicit,True,3.0,pitch_1,6,low,pitch_low,3
P65,72,DLD,1,right,1.0,False,pitch,5,0.78,2.715218455,2.864575148,1,explicit,True,3.0,pitch_5,10,high,pitch_high,2
P67,49,DLD,1,left,0.0,True,pitch,1,0.3,1.07271948,1.468817949,0,explicit,True,,pitch_1,6,low,pitch_low,3
P67,50,DLD,1,right,1.0,True,pitch,4,0.66,2.304593711,1.74831295,1,explicit,True,,pitch_4,9,high,pitch_high,2
P67,51,DLD,1,right,0.0,True,pitch,5,0.78,2.715218455,1.515727997,0,explicit,True,,pitch_5,10,high,pitch_high,2
P67,52,DLD,1,left,1.0,True,pitch,3,0.54,1.893968967,2.996778965,1,explicit,True,,pitch_3,8,low,pitch_low,3
P67,53,DLD,1,left,0.0,True,pitch,2,0.42,1.483344223,1.24859786,0,explicit,True,,pitch_2,7,low,pitch_low,3
P67,54,DLD,1,right,1.0,True,pitch,6,0.9,3.125843199,2.913458824,0,explicit,True,,pitch_6,11,high,pitch_high,2
P67,55,DLD,1,right,0.0,True,pitch,5,0.78,2.715218455,2.41493392,0,explicit,True,2.0,pitch_5,10,high,pitch_high,2
P67,56,DLD,1,left,1.0,True,pitch,2,0.42,1.483344223,1.765506029,0,explicit,True,2.0,pitch_2,7,low,pitch_low,3
P67,57,DLD,1,left,0.0,True,pitch,1,0.3,1.07271948,2.449555159,0,explicit,True,2.0,pitch_1,6,low,pitch_low,3
P67,58,DLD,1,right,1.0,True,pitch,4,0.66,2.304593711,2.264993191,1,explicit,True,2.0,pitch_4,9,high,pitch_high,2
P67,59,DLD,1,left,1.0,True,pitch,3,0.54,1.893968967,1.182765961,1,explicit,True,2.0,pitch_3,8,low,pitch_low,3
P67,60,DLD,1,right,1.0,True,pitch,6,0.9,3.125843199,1.415985107,0,explicit,True,2.0,pitch_6,11,high,pitch_high,2
P67,61,DLD,1,right,0.0,True,pitch,4,0.66,2.304593711,1.531502008,1,explicit,True,2.0,pitch_4,9,high,pitch_high,2
P67,62,DLD,1,left,1.0,True,pitch,1,0.3,1.07271948,2.563382864,0,explicit,True,3.0,pitch_1,6,low,pitch_low,3
P67,63,DLD,1,right,1.0,True,pitch,6,0.9,3.125843199,5.731240988,1,explicit,True,3.0,pitch_6,11,high,pitch_high,2
P67,64,DLD,1,right,0.0,True,pitch,5,0.78,2.715218455,1.865418196,0,explicit,True,3.0,pitch_5,10,high,pitch_high,2
P67,65,DLD,1,left,1.0,True,pitch,2,0.42,1.483344223,3.912740946,0,explicit,True,3.0,pitch_2,7,low,pitch_low,3
P67,66,DLD,1,left,0.0,True,pitch,3,0.54,1.893968967,1.917020082,0,explicit,True,3.0,pitch_3,8,low,pitch_low,3
P67,67,DLD,1,right,1.0,True,pitch,6,0.9,3.125843199,3.214365959,1,explicit,True,2.0,pitch_6,11,high,pitch_high,2
P67,68,DLD,1,left,1.0,True,pitch,3,0.54,1.893968967,7.161062956,0,explicit,True,3.0,pitch_3,8,low,pitch_low,3
P67,69,DLD,1,right,1.0,True,pitch,4,0.66,2.304593711,0.9149060249,1,explicit,True,2.0,pitch_4,9,high,pitch_high,2
P67,70,DLD,1,left,1.0,True,pitch,2,0.42,1.483344223,7.879397869,0,explicit,True,2.0,pitch_2,7,low,pitch_low,3
P67,71,DLD,1,left,0.0,True,pitch,1,0.3,1.07271948,1.381757021,0,explicit,True,3.0,pitch_1,6,low,pitch_low,3
P67,72,DLD,1,right,1.0,True,pitch,5,0.78,2.715218455,1.048163176,0,explicit,True,3.0,pitch_5,10,high,pitch_high,2
P68,49,DLD,6,right,0.0,True,pitch,6,0.9,3.125843199,2.950190067,1,explicit,True,,pitch_6,11,high,pitch_high,2
P68,50,DLD,6,left,1.0,True,pitch,3,0.54,1.893968967,1.714249849,0,explicit,True,,pitch_3,8,low,pitch_low,3
P68,51,DLD,6,left,0.0,True,pitch,2,0.42,1.483344223,2.832116127,0,explicit,True,,pitch_2,7,low,pitch_low,3
P68,52,DLD,6,right,1.0,True,pitch,4,0.66,2.304593711,4.794988871,1,explicit,True,,pitch_4,9,high,pitch_high,2
P68,53,DLD,6,left,1.0,True,pitch,1,0.3,1.07271948,1.899986982,1,explicit,True,,pitch_1,6,low,pitch_low,3
P68,54,DLD,6,right,1.0,True,pitch,5,0.78,2.715218455,7.914169073,1,explicit,True,,pitch_5,10,high,pitch_high,2
P68,55,DLD,6,left,1.0,True,pitch,1,0.3,1.07271948,4.380845785,1,explicit,True,2.0,pitch_1,6,low,pitch_low,3
P68,56,DLD,6,right,1.0,True,pitch,4,0.66,2.304593711,2.030611038,1,explicit,True,3.0,pitch_4,9,high,pitch_high,2
P68,57,DLD,6,right,0.0,True,pitch,5,0.78,2.715218455,6.847604036,0,explicit,True,3.0,pitch_5,10,high,pitch_high,2
P68,58,DLD,6,left,1.0,True,pitch,3,0.54,1.893968967,9.861769915,0,explicit,True,4.0,pitch_3,8,low,pitch_low,3
P68,59,DLD,6,left,0.0,True,pitch,2,0.42,1.483344223,5.462623119,1,explicit,True,4.0,pitch_2,7,low,pitch_low,3
P68,60,DLD,6,right,1.0,True,pitch,6,0.9,3.125843199,2.083997011,1,explicit,True,3.0,pitch_6,11,high,pitch_high,2
P68,61,DLD,6,right,0.0,True,pitch,4,0.66,2.304593711,18.17602706,1,explicit,True,3.0,pitch_4,9,high,pitch_high,2
P68,62,DLD,6,left,1.0,True,pitch,1,0.3,1.07271948,3.531450987,1,explicit,True,2.0,pitch_1,6,low,pitch_low,3
P68,63,DLD,6,right,1.0,True,pitch,6,0.9,3.125843199,3.429172993,1,explicit,True,2.0,pitch_6,11,high,pitch_high,2
P68,64,DLD,6,right,0.0,True,pitch,5,0.78,2.715218455,5.745952129,1,explicit,True,2.0,pitch_5,10,high,pitch_high,2
P68,65,DLD,6,left,1.0,True,pitch,2,0.42,1.483344223,1.164858818,0,explicit,True,2.0,pitch_2,7,low,pitch_low,3
P68,66,DLD,6,left,0.0,True,pitch,3,0.54,1.893968967,1.629731894,0,explicit,True,3.0,pitch_3,8,low,pitch_low,3
P68,67,DLD,6,left,0.0,True,pitch,3,0.54,1.893968967,1.166187048,0,explicit,True,2.0,pitch_3,8,low,pitch_low,3
P68,68,DLD,6,right,1.0,True,pitch,6,0.9,3.125843199,2.162905931,1,explicit,True,3.0,pitch_6,11,high,pitch_high,2
P68,69,DLD,6,left,1.0,True,pitch,2,0.42,1.483344223,3.932704926,1,explicit,True,2.0,pitch_2,7,low,pitch_low,3
P68,70,DLD,6,right,1.0,True,pitch,5,0.78,2.715218455,14.77626085,1,explicit,True,1.0,pitch_5,10,high,pitch_high,2
P68,71,DLD,6,right,0.0,True,pitch,4,0.66,2.304593711,9.56151104,1,explicit,True,2.0,pitch_4,9,high,pitch_high,2
P68,72,DLD,6,left,1.0,True,pitch,1,0.3,1.07271948,3.098254919,1,explicit,True,2.0,pitch_1,6,low,pitch_low,3
P70,49,DLD,3,left,0.0,False,duration,3,0.54,1.893968967,27.84083486,1,explicit,False,,duration_3,2,low,duration_low,1
P70,50,DLD,3,right,1.0,False,duration,6,0.9,3.125843199,5.979069948,0,explicit,True,,duration_6,5,high,duration_high,0
P70,51,DLD,3,left,1.0,False,duration,2,0.42,1.483344223,7.180295944,1,explicit,True,,duration_2,1,low,duration_low,1
P70,52,DLD,3,right,1.0,False,duration,5,0.78,2.715218455,1.330887079,1,explicit,True,,duration_5,4,high,duration_high,0
P70,53,DLD,3,right,0.0,False,duration,4,0.66,2.304593711,1.765991211,0,explicit,True,,duration_4,3,high,duration_high,0
P70,54,DLD,3,left,1.0,False,duration,1,0.3,1.07271948,3.131517172,1,explicit,True,,duration_1,0,low,duration_low,1
P70,55,DLD,3,left,0.0,False,duration,2,0.42,1.483344223,2.832453966,0,explicit,True,3.0,duration_2,1,low,duration_low,1
P70,56,DLD,3,right,1.0,False,duration,5,0.78,2.715218455,4.464948893,1,explicit,True,3.0,duration_5,4,high,duration_high,0
P70,57,DLD,3,left,1.0,False,duration,3,0.54,1.893968967,3.265308857,0,explicit,True,3.0,duration_3,2,low,duration_low,1
P70,58,DLD,3,left,0.0,False,duration,1,0.3,1.07271948,2.349354029,1,explicit,True,2.0,duration_1,0,low,duration_low,1
P70,59,DLD,3,right,1.0,False,duration,6,0.9,3.125843199,2.298666,1,explicit,True,2.0,duration_6,5,high,duration_high,0
P70,60,DLD,3,right,0.0,False,duration,4,0.66,2.304593711,0.96479702,1,explicit,True,3.0,duration_4,3,high,duration_high,0
P70,61,DLD,3,right,0.0,False,duration,6,0.9,3.125843199,1.298354149,0,explicit,True,2.0,duration_6,5,high,duration_high,0
P70,62,DLD,3,left,1.0,False,duration,3,0.54,1.893968967,0.533793211,1,explicit,True,3.0,duration_3,2,low,duration_low,1
P70,63,DLD,3,left,0.0,False,duration,2,0.42,1.483344223,1.897818089,0,explicit,True,2.0,duration_2,1,low,duration_low,1
P70,64,DLD,3,right,1.0,False,duration,4,0.66,2.304593711,3.498984098,1,explicit,True,1.0,duration_4,3,high,duration_high,0
P70,65,DLD,3,left,1.0,False,duration,1,0.3,1.07271948,5.930717945,0,explicit,True,2.0,duration_1,0,low,duration_low,1
P70,66,DLD,3,right,1.0,False,duration,5,0.78,2.715218455,2.597637892,1,explicit,True,1.0,duration_5,4,high,duration_high,0
P70,67,DLD,3,right,0.0,False,duration,5,0.78,2.715218455,2.31437397,0,explicit,True,2.0,duration_5,4,high,duration_high,0
P70,68,DLD,3,left,1.0,False,duration,2,0.42,1.483344223,1.298220873,1,explicit,True,3.0,duration_2,1,low,duration_low,1
P70,69,DLD,3,left,0.0,False,duration,1,0.3,1.07271948,1.997983217,0,explicit,True,3.0,duration_1,0,low,duration_low,1
P70,70,DLD,3,right,1.0,False,duration,4,0.66,2.304593711,2.498455048,1,explicit,True,3.0,duration_4,3,high,duration_high,0
P70,71,DLD,3,left,1.0,False,duration,3,0.54,1.893968967,12.92548108,1,explicit,True,3.0,duration_3,2,low,duration_low,1
P70,72,DLD,3,right,1.0,False,duration,6,0.9,3.125843199,1.216170073,1,explicit,True,2.0,duration_6,5,high,duration_high,0
P71,49,DLD,5,right,0.0,True,duration,5,0.78,2.715218455,4.234137058,0,explicit,True,,duration_5,4,high,duration_high,0
P71,50,DLD,5,left,1.0,True,duration,2,0.42,1.483344223,7.597977161,0,explicit,True,,duration_2,1,low,duration_low,1
P71,51,DLD,5,left,0.0,True,duration,1,0.3,1.07271948,1.531880856,0,explicit,True,,duration_1,0,low,duration_low,1
P71,52,DLD,5,right,1.0,True,duration,4,0.66,2.304593711,0.365254879,0,explicit,True,,duration_4,3,high,duration_high,0
P71,53,DLD,5,left,1.0,True,duration,3,0.54,1.893968967,1.730034113,1,explicit,True,,duration_3,2,low,duration_low,1
P71,54,DLD,5,right,1.0,True,duration,6,0.9,3.125843199,1.048271179,1,explicit,True,,duration_6,5,high,duration_high,0
P71,55,DLD,5,left,1.0,True,duration,1,0.3,1.07271948,0.232336998,1,explicit,True,2.0,duration_1,0,low,duration_low,1
P71,56,DLD,5,right,1.0,True,duration,4,0.66,2.304593711,1.598309994,1,explicit,True,3.0,duration_4,3,high,duration_high,0
P71,57,DLD,5,right,0.0,True,duration,5,0.78,2.715218455,0.9810361862,0,explicit,True,3.0,duration_5,4,high,duration_high,0
P71,58,DLD,5,left,1.0,True,duration,3,0.54,1.893968967,0.9820230007,0,explicit,True,4.0,duration_3,2,low,duration_low,1
P71,59,DLD,5,left,0.0,True,duration,2,0.42,1.483344223,0.882696867,0,explicit,True,4.0,duration_2,1,low,duration_low,1
P71,60,DLD,5,right,1.0,True,duration,6,0.9,3.125843199,1.663899899,0,explicit,True,3.0,duration_6,5,high,duration_high,0
P71,61,DLD,5,left,1.0,True,duration,3,0.54,1.893968967,1.599196196,0,explicit,True,3.0,duration_3,2,low,duration_low,1
P71,62,DLD,5,right,1.0,True,duration,6,0.9,3.125843199,1.529419184,0,explicit,True,2.0,duration_6,5,high,duration_high,0
P71,63,DLD,5,left,1.0,True,duration,2,0.42,1.483344223,0.6989891529,1,explicit,True,2.0,duration_2,1,low,duration_low,1
P71,64,DLD,5,right,1.0,True,duration,5,0.78,2.715218455,0.3481521606,1,explicit,True,3.0,duration_5,4,high,duration_high,0
P71,65,DLD,5,right,0.0,True,duration,4,0.66,2.304593711,0.6814439297,0,explicit,True,3.0,duration_4,3,high,duration_high,0
P71,66,DLD,5,left,1.0,True,duration,1,0.3,1.07271948,1.048692942,0,explicit,True,4.0,duration_1,0,low,duration_low,1
P71,67,DLD,5,left,0.0,True,duration,1,0.3,1.07271948,0.7652390003,0,explicit,True,4.0,duration_1,0,low,duration_low,1
P71,68,DLD,5,right,1.0,True,duration,4,0.66,2.304593711,0.4819910526,0,explicit,True,3.0,duration_4,3,high,duration_high,0
P71,69,DLD,5,right,0.0,True,duration,6,0.9,3.125843199,1.698873043,0,explicit,True,3.0,duration_6,5,high,duration_high,0
P71,70,DLD,5,left,1.0,True,duration,3,0.54,1.893968967,1.015270948,0,explicit,True,2.0,duration_3,2,low,duration_low,1
P71,71,DLD,5,right,1.0,True,duration,5,0.78,2.715218455,1.650238037,1,explicit,True,2.0,duration_5,4,high,duration_high,0
P71,72,DLD,5,left,1.0,True,duration,2,0.42,1.483344223,1.414114952,0,explicit,True,2.0,duration_2,1,low,duration_low,1
P72,49,DLD,2,left,0.0,False,pitch,2,0.42,1.483344223,12.01334786,0,explicit,True,,pitch_2,7,low,pitch_low,3
P72,50,DLD,2,right,1.0,False,pitch,5,0.78,2.715218455,11.74421501,1,explicit,True,,pitch_5,10,high,pitch_high,2
P72,51,DLD,2,left,1.0,False,pitch,3,0.54,1.893968967,22.74131989,1,explicit,True,,pitch_3,8,low,pitch_low,3
P72,52,DLD,2,left,0.0,False,pitch,1,0.3,1.07271948,5.478356123,0,explicit,True,,pitch_1,6,low,pitch_low,3
P72,53,DLD,2,right,1.0,False,pitch,6,0.9,3.125843199,4.497925043,1,explicit,True,,pitch_6,11,high,pitch_high,2
P72,54,DLD,2,right,0.0,False,pitch,4,0.66,2.304593711,12.19432902,0,explicit,True,,pitch_4,9,high,pitch_high,2
P72,55,DLD,2,right,0.0,False,pitch,6,0.9,3.125843199,3.513489962,0,explicit,True,2.0,pitch_6,11,high,pitch_high,2
P72,56,DLD,2,left,1.0,False,pitch,3,0.54,1.893968967,3.97970891,1,explicit,True,3.0,pitch_3,8,low,pitch_low,3
P72,57,DLD,2,left,0.0,False,pitch,2,0.42,1.483344223,5.298838139,1,explicit,True,2.0,pitch_2,7,low,pitch_low,3
P72,58,DLD,2,right,1.0,False,pitch,4,0.66,2.304593711,0.132367134,0,explicit,True,1.0,pitch_4,9,high,pitch_high,2
P72,59,DLD,2,left,1.0,False,pitch,1,0.3,1.07271948,0.165577173,0,explicit,True,2.0,pitch_1,6,low,pitch_low,3
P72,60,DLD,2,right,1.0,False,pitch,5,0.78,2.715218455,7.228636026,1,explicit,True,1.0,pitch_5,10,high,pitch_high,2
P72,61,DLD,2,left,1.0,False,pitch,1,0.3,1.07271948,10.37858391,1,explicit,True,2.0,pitch_1,6,low,pitch_low,3
P72,62,DLD,2,right,1.0,False,pitch,4,0.66,2.304593711,3.79760313,1,explicit,True,3.0,pitch_4,9,high,pitch_high,2
P72,63,DLD,2,right,0.0,False,pitch,6,0.9,3.125843199,6.295549154,0,explicit,True,3.0,pitch_6,11,high,pitch_high,2
P72,64,DLD,2,left,1.0,False,pitch,3,0.54,1.893968967,1.164224863,1,explicit,True,4.0,pitch_3,8,low,pitch_low,3
P72,65,DLD,2,right,1.0,False,pitch,5,0.78,2.715218455,10.97855687,1,explicit,True,4.0,pitch_5,10,high,pitch_high,2
P72,66,DLD,2,left,1.0,False,pitch,2,0.42,1.483344223,11.62759995,1,explicit,True,3.0,pitch_2,7,low,pitch_low,3
P72,67,DLD,2,left,0.0,False,pitch,3,0.54,1.893968967,4.597172022,1,explicit,True,3.0,pitch_3,8,low,pitch_low,3
P72,68,DLD,2,right,1.0,False,pitch,6,0.9,3.125843199,1.996703863,0,explicit,True,3.0,pitch_6,11,high,pitch_high,2
P72,69,DLD,2,left,1.0,False,pitch,2,0.42,1.483344223,1.18214488,1,explicit,True,3.0,pitch_2,7,low,pitch_low,3
P72,70,DLD,2,right,1.0,False,pitch,5,0.78,2.715218455,0.864315987,1,explicit,True,3.0,pitch_5,10,high,pitch_high,2
P72,71,DLD,2,right,0.0,False,pitch,4,0.66,2.304593711,1.047389984,0,explicit,True,3.0,pitch_4,9,high,pitch_high,2
P72,72,DLD,2,left,1.0,False,pitch,1,0.3,1.07271948,1.714753866,1,explicit,True,3.0,pitch_1,6,low,pitch_low,3
P73,49,TLD,3,left,0.0,False,pitch,3,0.54,1.893968967,3.351268053,1,explicit,True,,pitch_3,8,low,pitch_low,3
P73,50,TLD,3,right,1.0,False,pitch,6,0.9,3.125843199,1.217006922,1,explicit,True,,pitch_6,11,high,pitch_high,2
P73,51,TLD,3,left,1.0,False,pitch,2,0.42,1.483344223,1.347951889,1,explicit,True,,pitch_2,7,low,pitch_low,3
P73,52,TLD,3,right,1.0,False,pitch,5,0.78,2.715218455,0.1494190693,1,explicit,True,,pitch_5,10,high,pitch_high,2
P73,53,TLD,3,right,0.0,False,pitch,4,0.66,2.304593711,1.43048501,0,explicit,True,,pitch_4,9,high,pitch_high,2
P73,54,TLD,3,left,1.0,False,pitch,1,0.3,1.07271948,1.549129963,1,explicit,True,,pitch_1,6,low,pitch_low,3
P73,55,TLD,3,left,0.0,False,pitch,2,0.42,1.483344223,2.080525875,1,explicit,True,3.0,pitch_2,7,low,pitch_low,3
P73,56,TLD,3,right,1.0,False,pitch,5,0.78,2.715218455,2.447907925,1,explicit,True,3.0,pitch_5,10,high,pitch_high,2
P73,57,TLD,3,left,1.0,False,pitch,3,0.54,1.893968967,2.263336897,0,explicit,True,3.0,pitch_3,8,low,pitch_low,3
P73,58,TLD,3,left,0.0,False,pitch,1,0.3,1.07271948,1.148675919,1,explicit,True,2.0,pitch_1,6,low,pitch_low,3
P73,59,TLD,3,right,1.0,False,pitch,6,0.9,3.125843199,1.312997103,1,explicit,True,2.0,pitch_6,11,high,pitch_high,2
P73,60,TLD,3,right,0.0,False,pitch,4,0.66,2.304593711,1.115936995,0,explicit,True,3.0,pitch_4,9,high,pitch_high,2
P73,61,TLD,3,right,0.0,False,pitch,6,0.9,3.125843199,1.229552984,1,explicit,True,2.0,pitch_6,11,high,pitch_high,2
P73,62,TLD,3,left,1.0,False,pitch,3,0.54,1.893968967,0.04901385307,1,explicit,True,3.0,pitch_3,8,low,pitch_low,3
P73,63,TLD,3,left,0.0,False,pitch,2,0.42,1.483344223,1.733440161,0,explicit,True,2.0,pitch_2,7,low,pitch_low,3
P73,64,TLD,3,right,1.0,False,pitch,4,0.66,2.304593711,1.947340965,0,explicit,True,1.0,pitch_4,9,high,pitch_high,2
P73,65,TLD,3,left,1.0,False,pitch,1,0.3,1.07271948,1.064556837,1,explicit,True,2.0,pitch_1,6,low,pitch_low,3
P73,66,TLD,3,right,1.0,False,pitch,5,0.78,2.715218455,8.530947924,0,explicit,True,1.0,pitch_5,10,high,pitch_high,2
P73,67,TLD,3,right,0.0,False,pitch,5,0.78,2.715218455,1.181900978,1,explicit,True,2.0,pitch_5,10,high,pitch_high,2
P73,68,TLD,3,left,1.0,False,pitch,2,0.42,1.483344223,1.181313038,1,explicit,True,3.0,pitch_2,7,low,pitch_low,3
